OS,avg_corr,slider_example_belief.response,instructions.stopped,exp_trial.started,intro.stopped,emotion_instructions.stopped,avg_emot,statement,expName,final.stopped,date,warning.started,slider_belief.rt,key_resp_exp.rt,demographics.started,item_no,participant,belief_instructions.started,trials_loop.thisIndex,emotion_instructions.started,colour,frameRate,__session,emot_diff,__experimentName,study_id,belief_examples.started,key_resp_example_belief.keys,slider_example_belief.rt,key_resp_example_belief.rt,psychopyVersion,age_textbox.text,key_resp_exp.duration,trials_loop.thisN,trials_loop.thisRepN,key_resp_example_emotion.duration,gender_slider.response,key_resp_example_emotion.rt,debrief.stopped,key_resp_exp.keys,exp_trial.stopped,belief_instructions.stopped,slider_emotion.rt,demographics.stopped,debrief.started,corr_diff,consent.stopped,ready.stopped,ready.started,__participant,emotion_example.stopped,trials_loop.ran,trials_loop.thisTrialN,label,intro.started,consent.started,slider_example_emotion.rt,instructions.started,final.started,slider_belief.response,key_resp_example_emotion.keys,emotion_example.started,belief_examples.stopped,__datetime,warning.stopped,slider_example_emotion.response,slider_emotion.response,session
﻿Win32,,,,,7.620299999952317,,,,beliefs_scatterplots_pretest,,2024-05-23_07h03.54.081,,,,,,59153132c8e90000010e8546,,,,,59.88023952095874,001,,beliefs_scatterplots_pretest,664ed6ba62fd8adeb1015beb,,,,,2024.1.1,,,,,,,,,,,,,,,,,,,PARTICIPANT,,,,,0.00039999997615680627,,,,,,,,,2024-05-23_07h03.48.018,,,,664edc38fdd24438553309f9
﻿Win32,,,,,,,,,beliefs_scatterplots_pretest,,2024-05-23_07h03.54.081,69.19560000002384,,,,,59153132c8e90000010e8546,,,,,59.88023952095874,001,,beliefs_scatterplots_pretest,664ed6ba62fd8adeb1015beb,,,,,2024.1.1,,,,,,,,,,,,,,,,69.19460000002385,,,PARTICIPANT,,,,,,67.6517000000477,,,,,,,,2024-05-23_07h03.48.018,76.911,,,664edc38fdd24438553309f9
﻿Win32,,,,,,,,,beliefs_scatterplots_pretest,,2024-05-23_07h03.54.081,,,,76.91129999995232,,59153132c8e90000010e8546,,,,,59.88023952095874,001,,beliefs_scatterplots_pretest,664ed6ba62fd8adeb1015beb,,,,,2024.1.1,56,,,,,Female,,,,,,,86.94250000000001,,,,,,PARTICIPANT,,,,,,,,,,,,,,2024-05-23_07h03.48.018,,,,664edc38fdd24438553309f9
﻿Win32,,,138.41929999995233,,,151.9687000000477,,,beliefs_scatterplots_pretest,,2024-05-23_07h03.54.081,,,,,,59153132c8e90000010e8546,,,138.42039999997615,,59.88023952095874,001,,beliefs_scatterplots_pretest,664ed6ba62fd8adeb1015beb,,,,,2024.1.1,,,,,,,,,,,,,,,,,,,PARTICIPANT,,,,,,,,128.091,,,,,,2024-05-23_07h03.48.018,,,,664edc38fdd24438553309f9
﻿Win32,,,,,,,,,beliefs_scatterplots_pretest,,2024-05-23_07h03.54.081,,,,,,59153132c8e90000010e8546,,,,,59.88023952095874,001,,beliefs_scatterplots_pretest,664ed6ba62fd8adeb1015beb,,,,,2024.1.1,,,,,,,6.715000000000003,,,,,,,,,,,,PARTICIPANT,171.6772000000477,,,,,,12.961199999928482,,,,space,151.96910000002384,,2024-05-23_07h03.48.018,,4,,664edc38fdd24438553309f9
﻿Win32,,,,,,,,,beliefs_scatterplots_pretest,,2024-05-23_07h03.54.081,,,,,,59153132c8e90000010e8546,171.69,,,,59.88023952095874,001,,beliefs_scatterplots_pretest,664ed6ba62fd8adeb1015beb,,,,,2024.1.1,,,,,,,,,,,187.716,,,,,,,,PARTICIPANT,,,,,,,,,,,,,,2024-05-23_07h03.48.018,,,,664edc38fdd24438553309f9
﻿Win32,,4,,,,,,,beliefs_scatterplots_pretest,,2024-05-23_07h03.54.081,,,,,,59153132c8e90000010e8546,,,,,59.88023952095874,001,,beliefs_scatterplots_pretest,664ed6ba62fd8adeb1015beb,187.71620000004768,space,13.008500000000026,2.033599999904652,2024.1.1,,,,,,,,,,,,,,,,,,,PARTICIPANT,,,,,,,,,,,,,202.7902000000477,2024-05-23_07h03.48.018,,,,664edc38fdd24438553309f9
﻿Win32,,,,,,,,,beliefs_scatterplots_pretest,,2024-05-23_07h03.54.081,,,,,,59153132c8e90000010e8546,,,,,59.88023952095874,001,,beliefs_scatterplots_pretest,664ed6ba62fd8adeb1015beb,,,,,2024.1.1,,,,,,,,,,,,,,,,,207.98850000000002,202.79039999997616,PARTICIPANT,,,,,,,,,,,,,,2024-05-23_07h03.48.018,,,,664edc38fdd24438553309f9
﻿Win32,5.5,,,208.00610000002385,,,4,Higher levels of civic engagement are linked to a stronger sense of community.,beliefs_scatterplots_pretest,,2024-05-23_07h03.54.081,,24.662000000000006,3.432799999952323,,9,59153132c8e90000010e8546,,8,,black,59.88023952095874,001,0,beliefs_scatterplots_pretest,664ed6ba62fd8adeb1015beb,,,,,2024.1.1,,,0,0,,,,,space,236.1197000000477,,14.113300000071519,,,1,,,,PARTICIPANT,,1,0,high_corr,,,,,,5,,,,2024-05-23_07h03.48.018,,,5,664edc38fdd24438553309f9
﻿Win32,3.5,,,236.12120000004768,,,3,"As the amount of sleep decreases, the risk of obesity increases.",beliefs_scatterplots_pretest,,2024-05-23_07h03.54.081,,23.90970000004768,1.4836000000238414,,16,59153132c8e90000010e8546,,15,,black,59.88023952095874,001,0,beliefs_scatterplots_pretest,664ed6ba62fd8adeb1015beb,,,,,2024.1.1,,,1,0,,,,,space,261.5376000000238,,16.187799999952347,,,1,,,,PARTICIPANT,,1,1,low_corr,,,,,,3,,,,2024-05-23_07h03.48.018,,,3,664edc38fdd24438553309f9
﻿Win32,6.5,,,261.53860000002385,,,4.5,"As access to clean water improves, the incidence of waterborne diseases decreases.",beliefs_scatterplots_pretest,,2024-05-23_07h03.54.081,,11.539399999976126,1.3782000000476842,,6,59153132c8e90000010e8546,,5,,black,59.88023952095874,001,1,beliefs_scatterplots_pretest,664ed6ba62fd8adeb1015beb,,,,,2024.1.1,,,2,0,,,,,space,274.47479999995227,,8.156000000000006,,,1,,,,PARTICIPANT,,1,2,high_corr,,,,,,7,,,,2024-05-23_07h03.48.018,,,7,664edc38fdd24438553309f9
﻿Win32,5.5,,,274.47570000004765,,,5,Higher levels of empathy are linked to stronger interpersonal relationships.,beliefs_scatterplots_pretest,,2024-05-23_07h03.54.081,,11.41929999995233,1.1681999999284471,,7,59153132c8e90000010e8546,,6,,black,59.88023952095874,001,2,beliefs_scatterplots_pretest,664ed6ba62fd8adeb1015beb,,,,,2024.1.1,,,3,0,,,,,space,287.0842999999523,,9.471200000047645,,,1,,,,PARTICIPANT,,1,3,high_corr,,,,,,7,,,,2024-05-23_07h03.48.018,,,7,664edc38fdd24438553309f9
﻿Win32,2.5,,,287.0853999999761,,,4,Higher consumption of nuts and seeds is associated with reduced risk of cardiovascular diseases.,beliefs_scatterplots_pretest,,2024-05-23_07h03.54.081,,9.457799999952329,1.0188999999761563,,24,59153132c8e90000010e8546,,23,,black,59.88023952095874,001,2,beliefs_scatterplots_pretest,664ed6ba62fd8adeb1015beb,,,,,2024.1.1,,,4,0,,,,,space,297.5831000000238,,6.724800000071525,,,1,,,,PARTICIPANT,,1,4,low_corr,,,,,,6,,,,2024-05-23_07h03.48.018,,,6,664edc38fdd24438553309f9
﻿Win32,3,,,297.58420000004764,,,5,Greater exposure to music education is linked to enhanced cognitive development in children.,beliefs_scatterplots_pretest,,2024-05-23_07h03.54.081,,16.819999999999993,1.6686999999284922,,18,59153132c8e90000010e8546,,17,,black,59.88023952095874,001,2,beliefs_scatterplots_pretest,664ed6ba62fd8adeb1015beb,,,,,2024.1.1,,,5,0,,,,,space,316.0925,,10.22399999999999,,,0,,,,PARTICIPANT,,1,5,low_corr,,,,,,4,,,,2024-05-23_07h03.48.018,,,5,664edc38fdd24438553309f9
﻿Win32,3,,,316.09299999999996,,,4.5,"As participation in community arts programs increases, local cultural engagement tends to rise.",beliefs_scatterplots_pretest,,2024-05-23_07h03.54.081,,11.94570000004768,0.8003999999761504,,21,59153132c8e90000010e8546,,20,,black,59.88023952095874,001,1,beliefs_scatterplots_pretest,664ed6ba62fd8adeb1015beb,,,,,2024.1.1,,,6,0,,,,,space,328.86249999999995,,9.513299999952324,,,2,,,,PARTICIPANT,,1,6,low_corr,,,,,,5,,,,2024-05-23_07h03.48.018,,,5,664edc38fdd24438553309f9
﻿Win32,NA,,,328.86339999997614,,,NA,Please set both sliders to 1.,beliefs_scatterplots_pretest,,2024-05-23_07h03.54.081,,24.621400000095377,1.9399999999999977,,31,59153132c8e90000010e8546,,30,,red,59.88023952095874,001,NA,beliefs_scatterplots_pretest,664ed6ba62fd8adeb1015beb,,,,,2024.1.1,,,7,0,,,,,space,355.4447999999523,,18.039399999976126,,,NA,,,,PARTICIPANT,,1,7,AC,,,,,,1,,,,2024-05-23_07h03.48.018,,,1,664edc38fdd24438553309f9
﻿Win32,3,,,355.4452999999523,,,4,Greater adherence to a Mediterranean diet is linked to a lower risk of neurodegenerative diseases.,beliefs_scatterplots_pretest,,2024-05-23_07h03.54.081,,17.33850000000001,0.8522999999523222,,23,59153132c8e90000010e8546,,22,,black,59.88023952095874,001,0,beliefs_scatterplots_pretest,664ed6ba62fd8adeb1015beb,,,,,2024.1.1,,,8,0,,,,,space,373.65670000004764,,15.005300000071543,,,2,,,,PARTICIPANT,,1,8,low_corr,,,,,,7,,,,2024-05-23_07h03.48.018,,,7,664edc38fdd24438553309f9
﻿Win32,5.5,,,373.6577999999523,,,3,"As soil quality degrades, agricultural productivity tends to decrease.",beliefs_scatterplots_pretest,,2024-05-23_07h03.54.081,,17.294700000047726,1.385499999999979,,8,59153132c8e90000010e8546,,7,,black,59.88023952095874,001,2,beliefs_scatterplots_pretest,664ed6ba62fd8adeb1015beb,,,,,2024.1.1,,,9,0,,,,,space,392.35410000002383,,11.158099999904607,,,1,,,,PARTICIPANT,,1,9,high_corr,,,,,,7,,,,2024-05-23_07h03.48.018,,,2,664edc38fdd24438553309f9
﻿Win32,6.5,,,392.3548999999761,,,3,Greater use of helmets is associated with a lower incidence of head injuries in cyclists.,beliefs_scatterplots_pretest,,2024-05-23_07h03.54.081,,8.77239999997613,1.0678999999761913,,4,59153132c8e90000010e8546,,3,,black,59.88023952095874,001,2,beliefs_scatterplots_pretest,664ed6ba62fd8adeb1015beb,,,,,2024.1.1,,,10,0,,,,,space,402.2152999999523,,6.756799999952307,,,1,,,,PARTICIPANT,,1,10,high_corr,,,,,,7,,,,2024-05-23_07h03.48.018,,,7,664edc38fdd24438553309f9
﻿Win32,3.5,,,402.21570000004766,,,4,Greater water consumption is linked to improved kidney function.,beliefs_scatterplots_pretest,,2024-05-23_07h03.54.081,,9.327899999976182,1.0925000000000296,,15,59153132c8e90000010e8546,,14,,black,59.88023952095874,001,0,beliefs_scatterplots_pretest,664ed6ba62fd8adeb1015beb,,,,,2024.1.1,,,11,0,,,,,space,412.6557999999523,,7.14520000004768,,,1,,,,PARTICIPANT,,1,11,low_corr,,,,,,7,,,,2024-05-23_07h03.48.018,,,7,664edc38fdd24438553309f9
﻿Win32,7,,,412.65710000002383,,,4,"As the quality of healthcare improves, life expectancy tends to increase.",beliefs_scatterplots_pretest,,2024-05-23_07h03.54.081,,11.052000000000021,0.8845000000000027,,5,59153132c8e90000010e8546,,4,,black,59.88023952095874,001,2,beliefs_scatterplots_pretest,664ed6ba62fd8adeb1015beb,,,,,2024.1.1,,,12,0,,,,,space,424.6177999999523,,9.119399999976167,,,0,,,,PARTICIPANT,,1,12,high_corr,,,,,,7,,,,2024-05-23_07h03.48.018,,,7,664edc38fdd24438553309f9
﻿Win32,3.5,,,424.61949999999996,,,5,Higher frequency of family meals is linked to better eating habits in children.,beliefs_scatterplots_pretest,,2024-05-23_07h03.54.081,,12.117600000023856,0.88510000002384,,20,59153132c8e90000010e8546,,19,,black,59.88023952095874,001,2,beliefs_scatterplots_pretest,664ed6ba62fd8adeb1015beb,,,,,2024.1.1,,,13,0,,,,,space,437.64420000004765,,8.899899999976128,,,1,,,,PARTICIPANT,,1,13,low_corr,,,,,,7,,,,2024-05-23_07h03.48.018,,,7,664edc38fdd24438553309f9
﻿Win32,NA,,,437.64470000004764,,,NA,Please set both sliders to 1.,beliefs_scatterplots_pretest,,2024-05-23_07h03.54.081,,8.464699999928484,4.249699999928453,,30,59153132c8e90000010e8546,,29,,red,59.88023952095874,001,NA,beliefs_scatterplots_pretest,664ed6ba62fd8adeb1015beb,,,,,2024.1.1,,,14,0,,,,,space,450.38060000002383,,5.864299999952266,,,NA,,,,PARTICIPANT,,1,14,AC,,,,,,1,,,,2024-05-23_07h03.48.018,,,1,664edc38fdd24438553309f9
﻿Win32,3.5,,,450.39389999997616,,,4.5,Greater intake of omega-3 fatty acids is associated with lower inflammation levels.,beliefs_scatterplots_pretest,,2024-05-23_07h03.54.081,,14.908999999999992,2.4173000000715206,,17,59153132c8e90000010e8546,,16,,black,59.88023952095874,001,1,beliefs_scatterplots_pretest,664ed6ba62fd8adeb1015beb,,,,,2024.1.1,,,15,0,,,,,space,467.74039999997615,,8.942699999928493,,,1,,,,PARTICIPANT,,1,15,low_corr,,,,,,6,,,,2024-05-23_07h03.48.018,,,6,664edc38fdd24438553309f9
﻿Win32,NA,,,467.74110000002383,,,NA,Please set both sliders to 7.,beliefs_scatterplots_pretest,,2024-05-23_07h03.54.081,,7.667200000047728,2.9501000000238378,,26,59153132c8e90000010e8546,,25,,red,59.88023952095874,001,NA,beliefs_scatterplots_pretest,664ed6ba62fd8adeb1015beb,,,,,2024.1.1,,,16,0,,,,,space,478.3771000000238,,4.463399999976161,,,NA,,,,PARTICIPANT,,1,16,AC,,,,,,7,,,,2024-05-23_07h03.48.018,,,7,664edc38fdd24438553309f9
﻿Win32,6.5,,,478.3782000000477,,,4.5,Increased use of energy-efficient appliances is associated with lower electricity bills.,beliefs_scatterplots_pretest,,2024-05-23_07h03.54.081,,18.390199999928484,0.8504999999999541,,12,59153132c8e90000010e8546,,11,,black,59.88023952095874,001,1,beliefs_scatterplots_pretest,664ed6ba62fd8adeb1015beb,,,,,2024.1.1,,,17,0,,,,,space,497.64139999997616,,9.82270000004769,,,1,,,,PARTICIPANT,,1,17,high_corr,,,,,,6,,,,2024-05-23_07h03.48.018,,,6,664edc38fdd24438553309f9
﻿Win32,5.5,,,497.64239999997613,,,4,Greater frequency of exercise is linked to a lower risk of depression.,beliefs_scatterplots_pretest,,2024-05-23_07h03.54.081,,16.672600000023806,1.03449999999998,,3,59153132c8e90000010e8546,,2,,black,59.88023952095874,001,2,beliefs_scatterplots_pretest,664ed6ba62fd8adeb1015beb,,,,,2024.1.1,,,18,0,,,,,space,515.3682999999523,,12.319099999904552,,,1,,,,PARTICIPANT,,1,18,high_corr,,,,,,7,,,,2024-05-23_07h03.48.018,,,7,664edc38fdd24438553309f9
﻿Win32,1,,,515.3697999999523,,,3,Higher exposure to air conditioning is associated with increased respiratory issues.,beliefs_scatterplots_pretest,,2024-05-23_07h03.54.081,,14.274199999928442,1.6190000000000282,,19,59153132c8e90000010e8546,,18,,black,59.88023952095874,001,2,beliefs_scatterplots_pretest,664ed6ba62fd8adeb1015beb,,,,,2024.1.1,,,19,0,,,,,space,531.288,,8.125099999904592,,,0,,,,PARTICIPANT,,1,19,low_corr,,,,,,6,,,,2024-05-23_07h03.48.018,,,2,664edc38fdd24438553309f9
﻿Win32,6,,,531.2887000000477,,,3,Higher sugar consumption is associated with an increased risk of dental cavities.,beliefs_scatterplots_pretest,,2024-05-23_07h03.54.081,,20.857100000023934,1.703599999904668,,10,59153132c8e90000010e8546,,9,,black,59.88023952095874,001,0,beliefs_scatterplots_pretest,664ed6ba62fd8adeb1015beb,,,,,2024.1.1,,,20,0,,,,,space,553.8683999999762,,12.15689999997619,,,2,,,,PARTICIPANT,,1,20,high_corr,,,,,,7,,,,2024-05-23_07h03.48.018,,,1,664edc38fdd24438553309f9
﻿Win32,3,,,553.8687999999523,,,4.5,"As cultural preservation efforts increase, community identity and cohesion tend to strengthen.",beliefs_scatterplots_pretest,,2024-05-23_07h03.54.081,,31.937999999999988,1.9999000000952947,,25,59153132c8e90000010e8546,,24,,black,59.88023952095874,001,1,beliefs_scatterplots_pretest,664ed6ba62fd8adeb1015beb,,,,,2024.1.1,,,21,0,,,,,space,587.8311000000239,,24.622200000047656,,,0,,,,PARTICIPANT,,1,21,low_corr,,,,,,4,,,,2024-05-23_07h03.48.018,,,6,664edc38fdd24438553309f9
﻿Win32,2.5,,,587.8316000000239,,,4.5,Higher consumption of spicy foods is associated with a lower risk of certain types of cancer.,beliefs_scatterplots_pretest,,2024-05-23_07h03.54.081,,10.840000000000032,1.0020000000000664,,22,59153132c8e90000010e8546,,21,,black,59.88023952095874,001,1,beliefs_scatterplots_pretest,664ed6ba62fd8adeb1015beb,,,,,2024.1.1,,,22,0,,,,,space,599.6961000000239,,8.357199999928525,,,1,,,,PARTICIPANT,,1,22,low_corr,,,,,,6,,,,2024-05-23_07h03.48.018,,,7,664edc38fdd24438553309f9
﻿Win32,6.5,,,599.6966000000239,,,4.5,Increased exposure to sunlight is correlated with higher vitamin D levels.,beliefs_scatterplots_pretest,,2024-05-23_07h03.54.081,,10.723699999928499,10.393700000047716,,1,59153132c8e90000010e8546,,0,,black,59.88023952095874,001,1,beliefs_scatterplots_pretest,664ed6ba62fd8adeb1015beb,,,,,2024.1.1,,,23,0,,,,,space,620.8326000000238,,19.10489999997617,,,1,,,,PARTICIPANT,,1,23,high_corr,,,,,,7,,,,2024-05-23_07h03.48.018,,,6,664edc38fdd24438553309f9
﻿Win32,NA,,,620.8332000000477,,,NA,Please set both sliders to 7.,beliefs_scatterplots_pretest,,2024-05-23_07h03.54.081,,7.902699999928473,1.833600000023921,,28,59153132c8e90000010e8546,,27,,red,59.88023952095874,001,NA,beliefs_scatterplots_pretest,664ed6ba62fd8adeb1015beb,,,,,2024.1.1,,,24,0,,,,,space,630.5916000000238,,5.57000000000005,,,NA,,,,PARTICIPANT,,1,24,AC,,,,,,7,,,,2024-05-23_07h03.48.018,,,7,664edc38fdd24438553309f9
﻿Win32,NA,,,630.5925,,,NA,Please set both sliders to 7.,beliefs_scatterplots_pretest,,2024-05-23_07h03.54.081,,8.690000000000055,1.9840000000000373,,27,59153132c8e90000010e8546,,26,,red,59.88023952095874,001,NA,beliefs_scatterplots_pretest,664ed6ba62fd8adeb1015beb,,,,,2024.1.1,,,25,0,,,,,space,641.285,,6.440799999952333,,,NA,,,,PARTICIPANT,,1,25,AC,,,,,,7,,,,2024-05-23_07h03.48.018,,,7,664edc38fdd24438553309f9
﻿Win32,NA,,,641.2855,,,NA,Please set both sliders to 1.,beliefs_scatterplots_pretest,,2024-05-23_07h03.54.081,,7.080599999904734,2.2999999999999545,,29,59153132c8e90000010e8546,,28,,red,59.88023952095874,001,NA,beliefs_scatterplots_pretest,664ed6ba62fd8adeb1015beb,,,,,2024.1.1,,,26,0,,,,,space,650.6892999999523,,3.948100000023828,,,NA,,,,PARTICIPANT,,1,26,AC,,,,,,1,,,,2024-05-23_07h03.48.018,,,1,664edc38fdd24438553309f9
﻿Win32,6,,,650.6901000000238,,,3,Higher attendance at preventive health screenings is linked to earlier detection of diseases.,beliefs_scatterplots_pretest,,2024-05-23_07h03.54.081,,20.890200000047685,0.8502000000476073,,11,59153132c8e90000010e8546,,10,,black,59.88023952095874,001,2,beliefs_scatterplots_pretest,664ed6ba62fd8adeb1015beb,,,,,2024.1.1,,,27,0,,,,,space,672.4528999999761,,17.20779999995227,,,0,,,,PARTICIPANT,,1,27,high_corr,,,,,,7,,,,2024-05-23_07h03.48.018,,,7,664edc38fdd24438553309f9
﻿Win32,6,,,672.4538999999761,,,4.5,Greater regularity in sleep patterns is associated with improved mental health.,beliefs_scatterplots_pretest,,2024-05-23_07h03.54.081,,18.426799999952323,1.7662000000477747,,14,59153132c8e90000010e8546,,13,,black,59.88023952095874,001,1,beliefs_scatterplots_pretest,664ed6ba62fd8adeb1015beb,,,,,2024.1.1,,,28,0,,,,,space,692.6672999999523,,16.261100000023816,,,2,,,,PARTICIPANT,,1,28,high_corr,,,,,,6,,,,2024-05-23_07h03.48.018,,,6,664edc38fdd24438553309f9
﻿Win32,6.5,,,692.6682999999523,,,5,"As pedestrian-friendly infrastructure improves, urban walkability tends to increase.",beliefs_scatterplots_pretest,,2024-05-23_07h03.54.081,,12.957600000023831,0.8667999999522635,,13,59153132c8e90000010e8546,,12,,black,59.88023952095874,001,2,beliefs_scatterplots_pretest,664ed6ba62fd8adeb1015beb,,,,,2024.1.1,,,29,0,,,,,space,706.5156000000238,,10.274899999976242,,,1,,,,PARTICIPANT,,1,29,high_corr,,,,,,5,,,,2024-05-23_07h03.48.018,,,6,664edc38fdd24438553309f9
﻿Win32,6.5,,,706.5165,,,4,"As caffeine consumption increases, so does the average heart rate.",beliefs_scatterplots_pretest,,2024-05-23_07h03.54.081,,15.355699999928447,1.900199999928418,,2,59153132c8e90000010e8546,,1,,black,59.88023952095874,001,0,beliefs_scatterplots_pretest,664ed6ba62fd8adeb1015beb,,,,,2024.1.1,,,30,0,,,,,space,723.7914999999999,,11.656899999976076,,,1,,,,PARTICIPANT,,1,30,high_corr,,,,,,5,,,,2024-05-23_07h03.48.018,,,3,664edc38fdd24438553309f9
﻿Win32,,,,,,,,,beliefs_scatterplots_pretest,,2024-05-23_07h03.54.081,,,,,,59153132c8e90000010e8546,,,,,59.88023952095874,001,,beliefs_scatterplots_pretest,664ed6ba62fd8adeb1015beb,,,,,2024.1.1,,,,,,,,739.7622000000476,,,,,,723.7926000000239,,,,,PARTICIPANT,,,,,,,,,,,,,,2024-05-23_07h03.48.018,,,,664edc38fdd24438553309f9
﻿Win32,,,,,,,,,beliefs_scatterplots_pretest,744.6298999999761,2024-05-23_07h03.54.081,,,,,,59153132c8e90000010e8546,,,,,59.88023952095874,001,,beliefs_scatterplots_pretest,664ed6ba62fd8adeb1015beb,,,,,2024.1.1,,,,,,,,,,,,,,,,,,,PARTICIPANT,,,,,,,,,739.7622999999523,,,,,2024-05-23_07h03.48.018,,,,664edc38fdd24438553309f9
﻿MacIntel,,,,,4.8020000000000005,,,,beliefs_scatterplots_pretest,,2024-05-23_07h11.18.386,,,,,,65ca2977bc327c60dbc2232c,,,,,111.11111111111111,001,,beliefs_scatterplots_pretest,664ed6ba62fd8adeb1015beb,,,,,2024.1.1,,,,,,,,,,,,,,,,,,,PARTICIPANT,,,,,0,,,,,,,,,2024-05-23_07h11.14.842,,,,664eddfc9267fd9dd8cc5699
﻿MacIntel,,,,,,,,,beliefs_scatterplots_pretest,,2024-05-23_07h11.18.386,34.144999999999996,,,,,65ca2977bc327c60dbc2232c,,,,,111.11111111111111,001,,beliefs_scatterplots_pretest,664ed6ba62fd8adeb1015beb,,,,,2024.1.1,,,,,,,,,,,,,,,,34.144,,,PARTICIPANT,,,,,,32.92,,,,,,,,2024-05-23_07h11.14.842,39.001999999999995,,,664eddfc9267fd9dd8cc5699
﻿MacIntel,,,,,,,,,beliefs_scatterplots_pretest,,2024-05-23_07h11.18.386,,,,39.001999999999995,,65ca2977bc327c60dbc2232c,,,,,111.11111111111111,001,,beliefs_scatterplots_pretest,664ed6ba62fd8adeb1015beb,,,,,2024.1.1,44,,,,,Male,,,,,,,44.894,,,,,,PARTICIPANT,,,,,,,,,,,,,,2024-05-23_07h11.14.842,,,,664eddfc9267fd9dd8cc5699
﻿MacIntel,,,77.568,,,84.202,,,beliefs_scatterplots_pretest,,2024-05-23_07h11.18.386,,,,,,65ca2977bc327c60dbc2232c,,,77.569,,111.11111111111111,001,,beliefs_scatterplots_pretest,664ed6ba62fd8adeb1015beb,,,,,2024.1.1,,,,,,,,,,,,,,,,,,,PARTICIPANT,,,,,,,,74.736,,,,,,2024-05-23_07h11.14.842,,,,664eddfc9267fd9dd8cc5699
﻿MacIntel,,,,,,,,,beliefs_scatterplots_pretest,,2024-05-23_07h11.18.386,,,,,,65ca2977bc327c60dbc2232c,,,,,111.11111111111111,001,,beliefs_scatterplots_pretest,664ed6ba62fd8adeb1015beb,,,,,2024.1.1,,,,,,,6.445999999999998,,,,,,,,,,,,PARTICIPANT,94.385,,,,,,3.715999999999994,,,,space,84.214,,2024-05-23_07h11.14.842,,4,,664eddfc9267fd9dd8cc5699
﻿MacIntel,,,,,,,,,beliefs_scatterplots_pretest,,2024-05-23_07h11.18.386,,,,,,65ca2977bc327c60dbc2232c,94.39699999999999,,,,111.11111111111111,001,,beliefs_scatterplots_pretest,664ed6ba62fd8adeb1015beb,,,,,2024.1.1,,,,,,,,,,,101.504,,,,,,,,PARTICIPANT,,,,,,,,,,,,,,2024-05-23_07h11.14.842,,,,664eddfc9267fd9dd8cc5699
﻿MacIntel,,4,,,,,,,beliefs_scatterplots_pretest,,2024-05-23_07h11.18.386,,,,,,65ca2977bc327c60dbc2232c,,,,,111.11111111111111,001,,beliefs_scatterplots_pretest,664ed6ba62fd8adeb1015beb,101.505,space,4.9269999999999925,0.7039999999999935,2024.1.1,,,,,,,,,,,,,,,,,,,PARTICIPANT,,,,,,,,,,,,,107.151,2024-05-23_07h11.14.842,,,,664eddfc9267fd9dd8cc5699
﻿MacIntel,,,,,,,,,beliefs_scatterplots_pretest,,2024-05-23_07h11.18.386,,,,,,65ca2977bc327c60dbc2232c,,,,,111.11111111111111,001,,beliefs_scatterplots_pretest,664ed6ba62fd8adeb1015beb,,,,,2024.1.1,,,,,,,,,,,,,,,,,113.568,107.151,PARTICIPANT,,,,,,,,,,,,,,2024-05-23_07h11.14.842,,,,664eddfc9267fd9dd8cc5699
﻿MacIntel,6.5,,,113.582,,,4.5,Increased use of energy-efficient appliances is associated with lower electricity bills.,beliefs_scatterplots_pretest,,2024-05-23_07h11.18.386,,12.42000000000003,1.5250000000000057,,12,65ca2977bc327c60dbc2232c,,11,,black,111.11111111111111,001,1,beliefs_scatterplots_pretest,664ed6ba62fd8adeb1015beb,,,,,2024.1.1,,,0,0,,,,,space,127.53600000000002,,10.41000000000001,,,1,,,,PARTICIPANT,,1,0,high_corr,,,,,,6,,,,2024-05-23_07h11.14.842,,,4,664eddfc9267fd9dd8cc5699
﻿MacIntel,3,,,127.53700000000002,,,4.5,"As participation in community arts programs increases, local cultural engagement tends to rise.",beliefs_scatterplots_pretest,,2024-05-23_07h11.18.386,,9.378000000000014,0.6599999999999966,,21,65ca2977bc327c60dbc2232c,,20,,black,111.11111111111111,001,1,beliefs_scatterplots_pretest,664ed6ba62fd8adeb1015beb,,,,,2024.1.1,,,1,0,,,,,space,137.58400000000003,,8.149000000000001,,,2,,,,PARTICIPANT,,1,1,low_corr,,,,,,4,,,,2024-05-23_07h11.14.842,,,5,664eddfc9267fd9dd8cc5699
﻿MacIntel,3.5,,,137.58400000000003,,,5,Higher frequency of family meals is linked to better eating habits in children.,beliefs_scatterplots_pretest,,2024-05-23_07h11.18.386,,6.52200000000002,1.282999999999987,,20,65ca2977bc327c60dbc2232c,,19,,black,111.11111111111111,001,2,beliefs_scatterplots_pretest,664ed6ba62fd8adeb1015beb,,,,,2024.1.1,,,2,0,,,,,space,145.40100000000004,,4.980000000000018,,,1,,,,PARTICIPANT,,1,2,low_corr,,,,,,6,,,,2024-05-23_07h11.14.842,,,6,664eddfc9267fd9dd8cc5699
﻿MacIntel,5.5,,,145.40200000000002,,,4,Higher levels of civic engagement are linked to a stronger sense of community.,beliefs_scatterplots_pretest,,2024-05-23_07h11.18.386,,6.581999999999994,0.5769999999999982,,9,65ca2977bc327c60dbc2232c,,8,,black,111.11111111111111,001,0,beliefs_scatterplots_pretest,664ed6ba62fd8adeb1015beb,,,,,2024.1.1,,,3,0,,,,,space,152.56900000000002,,5.1340000000000146,,,1,,,,PARTICIPANT,,1,3,high_corr,,,,,,4,,,,2024-05-23_07h11.14.842,,,5,664eddfc9267fd9dd8cc5699
﻿MacIntel,2.5,,,152.57100000000003,,,4.5,Higher consumption of spicy foods is associated with a lower risk of certain types of cancer.,beliefs_scatterplots_pretest,,2024-05-23_07h11.18.386,,8.492999999999995,0.4300000000000068,,22,65ca2977bc327c60dbc2232c,,21,,black,111.11111111111111,001,1,beliefs_scatterplots_pretest,664ed6ba62fd8adeb1015beb,,,,,2024.1.1,,,4,0,,,,,space,161.50100000000003,,7.078000000000003,,,1,,,,PARTICIPANT,,1,4,low_corr,,,,,,3,,,,2024-05-23_07h11.14.842,,,3,664eddfc9267fd9dd8cc5699
﻿MacIntel,6.5,,,161.50100000000003,,,5,"As pedestrian-friendly infrastructure improves, urban walkability tends to increase.",beliefs_scatterplots_pretest,,2024-05-23_07h11.18.386,,9.40700000000001,0.6159999999999854,,13,65ca2977bc327c60dbc2232c,,12,,black,111.11111111111111,001,2,beliefs_scatterplots_pretest,664ed6ba62fd8adeb1015beb,,,,,2024.1.1,,,5,0,,,,,space,171.53500000000003,,7.838000000000022,,,1,,,,PARTICIPANT,,1,5,high_corr,,,,,,5,,,,2024-05-23_07h11.14.842,,,5,664eddfc9267fd9dd8cc5699
﻿MacIntel,NA,,,171.53500000000003,,,NA,Please set both sliders to 1.,beliefs_scatterplots_pretest,,2024-05-23_07h11.18.386,,6.325999999999993,0.9350000000000023,,29,65ca2977bc327c60dbc2232c,,28,,red,111.11111111111111,001,NA,beliefs_scatterplots_pretest,664ed6ba62fd8adeb1015beb,,,,,2024.1.1,,,6,0,,,,,space,178.81000000000003,,3.8789999999999907,,,NA,,,,PARTICIPANT,,1,6,AC,,,,,,1,,,,2024-05-23_07h11.14.842,,,1,664eddfc9267fd9dd8cc5699
﻿MacIntel,6,,,178.81100000000004,,,3,Higher attendance at preventive health screenings is linked to earlier detection of diseases.,beliefs_scatterplots_pretest,,2024-05-23_07h11.18.386,,9.446999999999974,2.551000000000016,,11,65ca2977bc327c60dbc2232c,,10,,black,111.11111111111111,001,2,beliefs_scatterplots_pretest,664ed6ba62fd8adeb1015beb,,,,,2024.1.1,,,7,0,,,,,space,189.29400000000004,,6.522999999999996,,,0,,,,PARTICIPANT,,1,7,high_corr,,,,,,7,,,,2024-05-23_07h11.14.842,,,6,664eddfc9267fd9dd8cc5699
﻿MacIntel,7,,,189.29500000000002,,,4,"As the quality of healthcare improves, life expectancy tends to increase.",beliefs_scatterplots_pretest,,2024-05-23_07h11.18.386,,5.330999999999989,0.646000000000015,,5,65ca2977bc327c60dbc2232c,,4,,black,111.11111111111111,001,2,beliefs_scatterplots_pretest,664ed6ba62fd8adeb1015beb,,,,,2024.1.1,,,8,0,,,,,space,195.28400000000002,,4.3799999999999955,,,0,,,,PARTICIPANT,,1,8,high_corr,,,,,,7,,,,2024-05-23_07h11.14.842,,,6,664eddfc9267fd9dd8cc5699
﻿MacIntel,3,,,195.28500000000003,,,4,Greater adherence to a Mediterranean diet is linked to a lower risk of neurodegenerative diseases.,beliefs_scatterplots_pretest,,2024-05-23_07h11.18.386,,7.180999999999983,1.7910000000000252,,23,65ca2977bc327c60dbc2232c,,22,,black,111.11111111111111,001,0,beliefs_scatterplots_pretest,664ed6ba62fd8adeb1015beb,,,,,2024.1.1,,,9,0,,,,,space,204.26800000000003,,5.450999999999993,,,2,,,,PARTICIPANT,,1,9,low_corr,,,,,,3,,,,2024-05-23_07h11.14.842,,,4,664eddfc9267fd9dd8cc5699
﻿MacIntel,5.5,,,204.26900000000003,,,3,"As soil quality degrades, agricultural productivity tends to decrease.",beliefs_scatterplots_pretest,,2024-05-23_07h11.18.386,,6.099000000000018,0.5490000000000066,,8,65ca2977bc327c60dbc2232c,,7,,black,111.11111111111111,001,2,beliefs_scatterplots_pretest,664ed6ba62fd8adeb1015beb,,,,,2024.1.1,,,10,0,,,,,space,210.92600000000002,,4.598000000000013,,,1,,,,PARTICIPANT,,1,10,high_corr,,,,,,6,,,,2024-05-23_07h11.14.842,,,3,664eddfc9267fd9dd8cc5699
﻿MacIntel,3,,,210.92700000000002,,,5,Greater exposure to music education is linked to enhanced cognitive development in children.,beliefs_scatterplots_pretest,,2024-05-23_07h11.18.386,,5.412000000000006,0.6009999999999991,,18,65ca2977bc327c60dbc2232c,,17,,black,111.11111111111111,001,2,beliefs_scatterplots_pretest,664ed6ba62fd8adeb1015beb,,,,,2024.1.1,,,11,0,,,,,space,216.95200000000003,,4.455999999999989,,,0,,,,PARTICIPANT,,1,11,low_corr,,,,,,6,,,,2024-05-23_07h11.14.842,,,6,664eddfc9267fd9dd8cc5699
﻿MacIntel,3,,,216.95200000000003,,,4.5,"As cultural preservation efforts increase, community identity and cohesion tend to strengthen.",beliefs_scatterplots_pretest,,2024-05-23_07h11.18.386,,7.1910000000000025,0.5889999999999986,,25,65ca2977bc327c60dbc2232c,,24,,black,111.11111111111111,001,1,beliefs_scatterplots_pretest,664ed6ba62fd8adeb1015beb,,,,,2024.1.1,,,12,0,,,,,space,224.74300000000002,,6.311999999999983,,,0,,,,PARTICIPANT,,1,12,low_corr,,,,,,5,,,,2024-05-23_07h11.14.842,,,5,664eddfc9267fd9dd8cc5699
﻿MacIntel,6,,,224.74400000000003,,,4.5,Greater regularity in sleep patterns is associated with improved mental health.,beliefs_scatterplots_pretest,,2024-05-23_07h11.18.386,,7.196000000000026,0.603999999999985,,14,65ca2977bc327c60dbc2232c,,13,,black,111.11111111111111,001,1,beliefs_scatterplots_pretest,664ed6ba62fd8adeb1015beb,,,,,2024.1.1,,,13,0,,,,,space,232.55100000000002,,4.451000000000022,,,2,,,,PARTICIPANT,,1,13,high_corr,,,,,,7,,,,2024-05-23_07h11.14.842,,,6,664eddfc9267fd9dd8cc5699
﻿MacIntel,NA,,,232.55200000000002,,,NA,Please set both sliders to 7.,beliefs_scatterplots_pretest,,2024-05-23_07h11.18.386,,5.594999999999999,0.45300000000000296,,26,65ca2977bc327c60dbc2232c,,25,,red,111.11111111111111,001,NA,beliefs_scatterplots_pretest,664ed6ba62fd8adeb1015beb,,,,,2024.1.1,,,14,0,,,,,space,238.61,,4.653999999999996,,,NA,,,,PARTICIPANT,,1,14,AC,,,,,,7,,,,2024-05-23_07h11.14.842,,,7,664eddfc9267fd9dd8cc5699
﻿MacIntel,1,,,238.61,,,3,Higher exposure to air conditioning is associated with increased respiratory issues.,beliefs_scatterplots_pretest,,2024-05-23_07h11.18.386,,4.945999999999998,1.700000000000017,,19,65ca2977bc327c60dbc2232c,,18,,black,111.11111111111111,001,2,beliefs_scatterplots_pretest,664ed6ba62fd8adeb1015beb,,,,,2024.1.1,,,15,0,,,,,space,245.26800000000003,,3.9269999999999925,,,0,,,,PARTICIPANT,,1,15,low_corr,,,,,,2,,,,2024-05-23_07h11.14.842,,,3,664eddfc9267fd9dd8cc5699
﻿MacIntel,3.5,,,245.26900000000003,,,4.5,Greater intake of omega-3 fatty acids is associated with lower inflammation levels.,beliefs_scatterplots_pretest,,2024-05-23_07h11.18.386,,5.640999999999991,0.7019999999999982,,17,65ca2977bc327c60dbc2232c,,16,,black,111.11111111111111,001,1,beliefs_scatterplots_pretest,664ed6ba62fd8adeb1015beb,,,,,2024.1.1,,,16,0,,,,,space,251.61900000000003,,4.536000000000001,,,1,,,,PARTICIPANT,,1,16,low_corr,,,,,,6,,,,2024-05-23_07h11.14.842,,,5,664eddfc9267fd9dd8cc5699
﻿MacIntel,6.5,,,251.61900000000003,,,3,Greater use of helmets is associated with a lower incidence of head injuries in cyclists.,beliefs_scatterplots_pretest,,2024-05-23_07h11.18.386,,5.259999999999991,0.6800000000000068,,4,65ca2977bc327c60dbc2232c,,3,,black,111.11111111111111,001,2,beliefs_scatterplots_pretest,664ed6ba62fd8adeb1015beb,,,,,2024.1.1,,,17,0,,,,,space,257.56800000000004,,4.312000000000012,,,1,,,,PARTICIPANT,,1,17,high_corr,,,,,,7,,,,2024-05-23_07h11.14.842,,,6,664eddfc9267fd9dd8cc5699
﻿MacIntel,3.5,,,257.56800000000004,,,3,"As the amount of sleep decreases, the risk of obesity increases.",beliefs_scatterplots_pretest,,2024-05-23_07h11.18.386,,5.847999999999956,0.44299999999998363,,16,65ca2977bc327c60dbc2232c,,15,,black,111.11111111111111,001,0,beliefs_scatterplots_pretest,664ed6ba62fd8adeb1015beb,,,,,2024.1.1,,,18,0,,,,,space,263.86800000000005,,4.839999999999975,,,1,,,,PARTICIPANT,,1,18,low_corr,,,,,,2,,,,2024-05-23_07h11.14.842,,,3,664eddfc9267fd9dd8cc5699
﻿MacIntel,NA,,,263.86800000000005,,,NA,Please set both sliders to 7.,beliefs_scatterplots_pretest,,2024-05-23_07h11.18.386,,3.7180000000000177,0.46299999999996544,,28,65ca2977bc327c60dbc2232c,,27,,red,111.11111111111111,001,NA,beliefs_scatterplots_pretest,664ed6ba62fd8adeb1015beb,,,,,2024.1.1,,,19,0,,,,,space,268.059,,2.733000000000004,,,NA,,,,PARTICIPANT,,1,19,AC,,,,,,7,,,,2024-05-23_07h11.14.842,,,7,664eddfc9267fd9dd8cc5699
﻿MacIntel,2.5,,,268.06,,,4,Higher consumption of nuts and seeds is associated with reduced risk of cardiovascular diseases.,beliefs_scatterplots_pretest,,2024-05-23_07h11.18.386,,5.100000000000023,0.6150000000000091,,24,65ca2977bc327c60dbc2232c,,23,,black,111.11111111111111,001,2,beliefs_scatterplots_pretest,664ed6ba62fd8adeb1015beb,,,,,2024.1.1,,,20,0,,,,,space,273.77700000000004,,4.257000000000005,,,1,,,,PARTICIPANT,,1,20,low_corr,,,,,,6,,,,2024-05-23_07h11.14.842,,,6,664eddfc9267fd9dd8cc5699
﻿MacIntel,NA,,,273.77700000000004,,,NA,Please set both sliders to 1.,beliefs_scatterplots_pretest,,2024-05-23_07h11.18.386,,3.446999999999946,0.39699999999999136,,31,65ca2977bc327c60dbc2232c,,30,,red,111.11111111111111,001,NA,beliefs_scatterplots_pretest,664ed6ba62fd8adeb1015beb,,,,,2024.1.1,,,21,0,,,,,space,277.62800000000004,,1.9699999999999704,,,NA,,,,PARTICIPANT,,1,21,AC,,,,,,1,,,,2024-05-23_07h11.14.842,,,1,664eddfc9267fd9dd8cc5699
﻿MacIntel,3.5,,,277.629,,,4,Greater water consumption is linked to improved kidney function.,beliefs_scatterplots_pretest,,2024-05-23_07h11.18.386,,5.476999999999975,0.5890000000000555,,15,65ca2977bc327c60dbc2232c,,14,,black,111.11111111111111,001,0,beliefs_scatterplots_pretest,664ed6ba62fd8adeb1015beb,,,,,2024.1.1,,,22,0,,,,,space,283.70200000000006,,4.019999999999982,,,1,,,,PARTICIPANT,,1,22,low_corr,,,,,,7,,,,2024-05-23_07h11.14.842,,,6,664eddfc9267fd9dd8cc5699
﻿MacIntel,NA,,,283.70200000000006,,,NA,Please set both sliders to 7.,beliefs_scatterplots_pretest,,2024-05-23_07h11.18.386,,2.7450000000000045,0.76400000000001,,27,65ca2977bc327c60dbc2232c,,26,,red,111.11111111111111,001,NA,beliefs_scatterplots_pretest,664ed6ba62fd8adeb1015beb,,,,,2024.1.1,,,23,0,,,,,space,288.269,,3.798000000000002,,,NA,,,,PARTICIPANT,,1,23,AC,,,,,,7,,,,2024-05-23_07h11.14.842,,,7,664eddfc9267fd9dd8cc5699
﻿MacIntel,6.5,,,288.269,,,4.5,"As access to clean water improves, the incidence of waterborne diseases decreases.",beliefs_scatterplots_pretest,,2024-05-23_07h11.18.386,,7.761000000000024,0.5260000000000105,,6,65ca2977bc327c60dbc2232c,,5,,black,111.11111111111111,001,1,beliefs_scatterplots_pretest,664ed6ba62fd8adeb1015beb,,,,,2024.1.1,,,24,0,,,,,space,296.56800000000004,,6.088999999999999,,,1,,,,PARTICIPANT,,1,24,high_corr,,,,,,7,,,,2024-05-23_07h11.14.842,,,6,664eddfc9267fd9dd8cc5699
﻿MacIntel,6.5,,,296.569,,,4,"As caffeine consumption increases, so does the average heart rate.",beliefs_scatterplots_pretest,,2024-05-23_07h11.18.386,,6.084000000000003,0.6820000000000164,,2,65ca2977bc327c60dbc2232c,,1,,black,111.11111111111111,001,0,beliefs_scatterplots_pretest,664ed6ba62fd8adeb1015beb,,,,,2024.1.1,,,25,0,,,,,space,303.34400000000005,,4.6200000000000045,,,1,,,,PARTICIPANT,,1,25,high_corr,,,,,,6,,,,2024-05-23_07h11.14.842,,,5,664eddfc9267fd9dd8cc5699
﻿MacIntel,5.5,,,303.34400000000005,,,4,Greater frequency of exercise is linked to a lower risk of depression.,beliefs_scatterplots_pretest,,2024-05-23_07h11.18.386,,5.087000000000046,0.5649999999999977,,3,65ca2977bc327c60dbc2232c,,2,,black,111.11111111111111,001,2,beliefs_scatterplots_pretest,664ed6ba62fd8adeb1015beb,,,,,2024.1.1,,,26,0,,,,,space,309.004,,4.067000000000007,,,1,,,,PARTICIPANT,,1,26,high_corr,,,,,,7,,,,2024-05-23_07h11.14.842,,,7,664eddfc9267fd9dd8cc5699
﻿MacIntel,NA,,,309.00500000000005,,,NA,Please set both sliders to 1.,beliefs_scatterplots_pretest,,2024-05-23_07h11.18.386,,3.009999999999991,0.6020000000000323,,30,65ca2977bc327c60dbc2232c,,29,,red,111.11111111111111,001,NA,beliefs_scatterplots_pretest,664ed6ba62fd8adeb1015beb,,,,,2024.1.1,,,27,0,,,,,space,312.627,,1.5219999999999914,,,NA,,,,PARTICIPANT,,1,27,AC,,,,,,1,,,,2024-05-23_07h11.14.842,,,1,664eddfc9267fd9dd8cc5699
﻿MacIntel,5.5,,,312.62800000000004,,,5,Higher levels of empathy are linked to stronger interpersonal relationships.,beliefs_scatterplots_pretest,,2024-05-23_07h11.18.386,,5.856999999999971,0.4619999999999891,,7,65ca2977bc327c60dbc2232c,,6,,black,111.11111111111111,001,2,beliefs_scatterplots_pretest,664ed6ba62fd8adeb1015beb,,,,,2024.1.1,,,28,0,,,,,space,318.959,,4.998999999999967,,,1,,,,PARTICIPANT,,1,28,high_corr,,,,,,6,,,,2024-05-23_07h11.14.842,,,6,664eddfc9267fd9dd8cc5699
﻿MacIntel,6,,,318.96000000000004,,,3,Higher sugar consumption is associated with an increased risk of dental cavities.,beliefs_scatterplots_pretest,,2024-05-23_07h11.18.386,,6.607000000000028,0.7690000000000055,,10,65ca2977bc327c60dbc2232c,,9,,black,111.11111111111111,001,0,beliefs_scatterplots_pretest,664ed6ba62fd8adeb1015beb,,,,,2024.1.1,,,29,0,,,,,space,326.343,,4.910000000000025,,,2,,,,PARTICIPANT,,1,29,high_corr,,,,,,6,,,,2024-05-23_07h11.14.842,,,4,664eddfc9267fd9dd8cc5699
﻿MacIntel,6.5,,,326.343,,,4.5,Increased exposure to sunlight is correlated with higher vitamin D levels.,beliefs_scatterplots_pretest,,2024-05-23_07h11.18.386,,6.975000000000023,0.5440000000000396,,1,65ca2977bc327c60dbc2232c,,0,,black,111.11111111111111,001,1,beliefs_scatterplots_pretest,664ed6ba62fd8adeb1015beb,,,,,2024.1.1,,,30,0,,,,,space,333.869,,5.3559999999999945,,,1,,,,PARTICIPANT,,1,30,high_corr,,,,,,7,,,,2024-05-23_07h11.14.842,,,4,664eddfc9267fd9dd8cc5699
﻿MacIntel,,,,,,,,,beliefs_scatterplots_pretest,,2024-05-23_07h11.18.386,,,,,,65ca2977bc327c60dbc2232c,,,,,111.11111111111111,001,,beliefs_scatterplots_pretest,664ed6ba62fd8adeb1015beb,,,,,2024.1.1,,,,,,,,341.98400000000004,,,,,,333.869,,,,,PARTICIPANT,,,,,,,,,,,,,,2024-05-23_07h11.14.842,,,,664eddfc9267fd9dd8cc5699
﻿MacIntel,,,,,,,,,beliefs_scatterplots_pretest,345.76000000000005,2024-05-23_07h11.18.386,,,,,,65ca2977bc327c60dbc2232c,,,,,111.11111111111111,001,,beliefs_scatterplots_pretest,664ed6ba62fd8adeb1015beb,,,,,2024.1.1,,,,,,,,,,,,,,,,,,,PARTICIPANT,,,,,,,,,341.98400000000004,,,,,2024-05-23_07h11.14.842,,,,664eddfc9267fd9dd8cc5699
﻿Win32,,,,,90.30189999999851,,,,beliefs_scatterplots_pretest,,2024-05-23_07h22.57.174,,,,,,62d70d1f219a25bcf1db0bfa,,,,,60.24096385542697,001,,beliefs_scatterplots_pretest,664ed6ba62fd8adeb1015beb,,,,,2024.1.1,,,,,,,,,,,,,,,,,,,PARTICIPANT,,,,,0.0006999999992558514,,,,,,,,,2024-05-23_07h22.40.627,,,,664ee0ab45326734a5ede843
﻿Win32,,,,,,,,,beliefs_scatterplots_pretest,,2024-05-23_07h22.57.174,113.03610000000148,,,,,62d70d1f219a25bcf1db0bfa,,,,,60.24096385542697,001,,beliefs_scatterplots_pretest,664ed6ba62fd8adeb1015beb,,,,,2024.1.1,,,,,,,,,,,,,,,,113.03480000000073,,,PARTICIPANT,,,,,,111.46710000000147,,,,,,,,2024-05-23_07h22.40.627,122.23469999999924,,,664ee0ab45326734a5ede843
﻿Win32,,,,,,,,,beliefs_scatterplots_pretest,,2024-05-23_07h22.57.174,,,,122.23480000000072,,62d70d1f219a25bcf1db0bfa,,,,,60.24096385542697,001,,beliefs_scatterplots_pretest,664ed6ba62fd8adeb1015beb,,,,,2024.1.1, 3232,,,,,Male,,,,,,,148.23499999999999,,,,,,PARTICIPANT,,,,,,,,,,,,,,2024-05-23_07h22.40.627,,,,664ee0ab45326734a5ede843
﻿Win32,,,169.83310000000148,,,175.33330000000072,,,beliefs_scatterplots_pretest,,2024-05-23_07h22.57.174,,,,,,62d70d1f219a25bcf1db0bfa,,,169.83369999999923,,60.24096385542697,001,,beliefs_scatterplots_pretest,664ed6ba62fd8adeb1015beb,,,,,2024.1.1,,,,,,,,,,,,,,,,,,,PARTICIPANT,,,,,,,,167.11669999999924,,,,,,2024-05-23_07h22.40.627,,,,664ee0ab45326734a5ede843
﻿Win32,,,,,,,,,beliefs_scatterplots_pretest,,2024-05-23_07h22.57.174,,,,,,62d70d1f219a25bcf1db0bfa,,,,,60.24096385542697,001,,beliefs_scatterplots_pretest,664ed6ba62fd8adeb1015beb,,,,,2024.1.1,,,,,,,0.9333999999985281,,,,,,,,,,,,PARTICIPANT,186.70180000000073,,,,,,10.892500000000013,,,,space,175.3333999999985,,2024-05-23_07h22.40.627,,5,,664ee0ab45326734a5ede843
﻿Win32,,,,,,,,,beliefs_scatterplots_pretest,,2024-05-23_07h22.57.174,,,,,,62d70d1f219a25bcf1db0bfa,186.70230000000072,,,,60.24096385542697,001,,beliefs_scatterplots_pretest,664ed6ba62fd8adeb1015beb,,,,,2024.1.1,,,,,,,,,,,193.96819999999923,,,,,,,,PARTICIPANT,,,,,,,,,,,,,,2024-05-23_07h22.40.627,,,,664ee0ab45326734a5ede843
﻿Win32,,3,,,,,,,beliefs_scatterplots_pretest,,2024-05-23_07h22.57.174,,,,,,62d70d1f219a25bcf1db0bfa,,,,,60.24096385542697,001,,beliefs_scatterplots_pretest,664ed6ba62fd8adeb1015beb,193.96830000000074,space,13.057100000001498,0.2519000000022231,2024.1.1,,,,,,,,,,,,,,,,,,,PARTICIPANT,,,,,,,,,,,,,207.3033999999985,2024-05-23_07h22.40.627,,,,664ee0ab45326734a5ede843
﻿Win32,,,,,,,,,beliefs_scatterplots_pretest,,2024-05-23_07h22.57.174,,,,,,62d70d1f219a25bcf1db0bfa,,,,,60.24096385542697,001,,beliefs_scatterplots_pretest,664ed6ba62fd8adeb1015beb,,,,,2024.1.1,,,,,,,,,,,,,,,,,210.86599999999999,207.3033999999985,PARTICIPANT,,,,,,,,,,,,,,2024-05-23_07h22.40.627,,,,664ee0ab45326734a5ede843
﻿Win32,6.5,,,210.86860000000146,,,4.5,"As access to clean water improves, the incidence of waterborne diseases decreases.",beliefs_scatterplots_pretest,,2024-05-23_07h22.57.174,,9.765699999999242,0.40809999999774504,,6,62d70d1f219a25bcf1db0bfa,,5,,black,60.24096385542697,001,1,beliefs_scatterplots_pretest,664ed6ba62fd8adeb1015beb,,,,,2024.1.1,,,0,0,,,,,space,221.06610000000148,,8.77200000000002,,,1,,,,PARTICIPANT,,1,0,high_corr,,,,,,7,,,,2024-05-23_07h22.40.627,,,7,664ee0ab45326734a5ede843
﻿Win32,5.5,,,221.0665,,,3,"As soil quality degrades, agricultural productivity tends to decrease.",beliefs_scatterplots_pretest,,2024-05-23_07h22.57.174,,13.15949999999998,1.5468000000007294,,8,62d70d1f219a25bcf1db0bfa,,7,,black,60.24096385542697,001,2,beliefs_scatterplots_pretest,664ed6ba62fd8adeb1015beb,,,,,2024.1.1,,,1,0,,,,,space,235.78230000000073,,11.31649999999999,,,1,,,,PARTICIPANT,,1,1,high_corr,,,,,,6,,,,2024-05-23_07h22.40.627,,,2,664ee0ab45326734a5ede843
﻿Win32,6.5,,,235.7826999999992,,,4,"As caffeine consumption increases, so does the average heart rate.",beliefs_scatterplots_pretest,,2024-05-23_07h22.57.174,,5.1926999999992915,0.16389999999853444,,2,62d70d1f219a25bcf1db0bfa,,1,,black,60.24096385542697,001,0,beliefs_scatterplots_pretest,664ed6ba62fd8adeb1015beb,,,,,2024.1.1,,,2,0,,,,,space,241.149,,3.1301000000014767,,,1,,,,PARTICIPANT,,1,2,high_corr,,,,,,6,,,,2024-05-23_07h22.40.627,,,4,664ee0ab45326734a5ede843
﻿Win32,6.5,,,241.14939999999854,,,3,Greater use of helmets is associated with a lower incidence of head injuries in cyclists.,beliefs_scatterplots_pretest,,2024-05-23_07h22.57.174,,7.416399999998532,11.934400000002256,,4,62d70d1f219a25bcf1db0bfa,,3,,black,60.24096385542697,001,2,beliefs_scatterplots_pretest,664ed6ba62fd8adeb1015beb,,,,,2024.1.1,,,3,0,,,,,space,260.53169999999926,,5.567600000001505,,,1,,,,PARTICIPANT,,1,3,high_corr,,,,,,5,,,,2024-05-23_07h22.40.627,,,5,664ee0ab45326734a5ede843
﻿Win32,3,,,260.5401999999993,,,4,Greater adherence to a Mediterranean diet is linked to a lower risk of neurodegenerative diseases.,beliefs_scatterplots_pretest,,2024-05-23_07h22.57.174,,93.4199000000022,0.42040000000218924,,23,62d70d1f219a25bcf1db0bfa,,22,,black,60.24096385542697,001,0,beliefs_scatterplots_pretest,664ed6ba62fd8adeb1015beb,,,,,2024.1.1,,,4,0,,,,,space,356.04819999999927,,95.06889999999851,,,2,,,,PARTICIPANT,,1,4,low_corr,,,,,,1,,,,2024-05-23_07h22.40.627,,,2,664ee0ab45326734a5ede843
﻿Win32,NA,,,356.0486000000015,,,NA,Please set both sliders to 1.,beliefs_scatterplots_pretest,,2024-05-23_07h22.57.174,,16.103099999997767,18.65119999999922,,30,62d70d1f219a25bcf1db0bfa,,29,,red,60.24096385542697,001,NA,beliefs_scatterplots_pretest,664ed6ba62fd8adeb1015beb,,,,,2024.1.1,,,5,0,,,,,space,378.6796999999993,,14.690500000000043,,,NA,,,,PARTICIPANT,,1,5,AC,,,,,,1,,,,2024-05-23_07h22.40.627,,,1,664ee0ab45326734a5ede843
﻿Win32,3,,,378.6905,,,5,Greater exposure to music education is linked to enhanced cognitive development in children.,beliefs_scatterplots_pretest,,2024-05-23_07h22.57.174,,8.043599999997753,0.2629999999999768,,18,62d70d1f219a25bcf1db0bfa,,17,,black,60.24096385542697,001,2,beliefs_scatterplots_pretest,664ed6ba62fd8adeb1015beb,,,,,2024.1.1,,,6,0,,,,,space,387.0141000000015,,6.011899999998548,,,0,,,,PARTICIPANT,,1,6,low_corr,,,,,,7,,,,2024-05-23_07h22.40.627,,,7,664ee0ab45326734a5ede843
﻿Win32,3.5,,,387.01439999999855,,,5,Higher frequency of family meals is linked to better eating habits in children.,beliefs_scatterplots_pretest,,2024-05-23_07h22.57.174,,5.789399999998523,0.20469999999926358,,20,62d70d1f219a25bcf1db0bfa,,19,,black,60.24096385542697,001,2,beliefs_scatterplots_pretest,664ed6ba62fd8adeb1015beb,,,,,2024.1.1,,,7,0,,,,,space,393.0306999999993,,4.795500000000004,,,1,,,,PARTICIPANT,,1,7,low_corr,,,,,,7,,,,2024-05-23_07h22.40.627,,,7,664ee0ab45326734a5ede843
﻿Win32,NA,,,393.031,,,NA,Please set both sliders to 1.,beliefs_scatterplots_pretest,,2024-05-23_07h22.57.174,,4.6924999999999955,0.4832000000029666,,31,62d70d1f219a25bcf1db0bfa,,30,,red,60.24096385542697,001,NA,beliefs_scatterplots_pretest,664ed6ba62fd8adeb1015beb,,,,,2024.1.1,,,8,0,,,,,space,398.21500000000003,,3.120999999999981,,,NA,,,,PARTICIPANT,,1,8,AC,,,,,,1,,,,2024-05-23_07h22.40.627,,,1,664ee0ab45326734a5ede843
﻿Win32,6.5,,,398.21530000000075,,,4.5,Increased exposure to sunlight is correlated with higher vitamin D levels.,beliefs_scatterplots_pretest,,2024-05-23_07h22.57.174,,9.40719999999925,0.22789999999849897,,1,62d70d1f219a25bcf1db0bfa,,0,,black,60.24096385542697,001,1,beliefs_scatterplots_pretest,664ed6ba62fd8adeb1015beb,,,,,2024.1.1,,,9,0,,,,,space,407.86650000000003,,7.96550000000002,,,1,,,,PARTICIPANT,,1,9,high_corr,,,,,,5,,,,2024-05-23_07h22.40.627,,,4,664ee0ab45326734a5ede843
﻿Win32,1,,,407.8675,,,3,Higher exposure to air conditioning is associated with increased respiratory issues.,beliefs_scatterplots_pretest,,2024-05-23_07h22.57.174,,6.949399999998548,0.24419999999923903,,19,62d70d1f219a25bcf1db0bfa,,18,,black,60.24096385542697,001,2,beliefs_scatterplots_pretest,664ed6ba62fd8adeb1015beb,,,,,2024.1.1,,,10,0,,,,,space,415.08019999999925,,5.219499999999982,,,0,,,,PARTICIPANT,,1,10,low_corr,,,,,,5,,,,2024-05-23_07h22.40.627,,,3,664ee0ab45326734a5ede843
﻿Win32,2.5,,,415.0806000000015,,,4.5,Higher consumption of spicy foods is associated with a lower risk of certain types of cancer.,beliefs_scatterplots_pretest,,2024-05-23_07h22.57.174,,11.273500000000013,0.2386000000014974,,22,62d70d1f219a25bcf1db0bfa,,21,,black,60.24096385542697,001,1,beliefs_scatterplots_pretest,664ed6ba62fd8adeb1015beb,,,,,2024.1.1,,,11,0,,,,,space,426.61380000000077,,4.822499999999991,,,1,,,,PARTICIPANT,,1,11,low_corr,,,,,,3,,,,2024-05-23_07h22.40.627,,,2,664ee0ab45326734a5ede843
﻿Win32,6,,,426.6141000000015,,,4.5,Greater regularity in sleep patterns is associated with improved mental health.,beliefs_scatterplots_pretest,,2024-05-23_07h22.57.174,,137.91940000000227,2.783999999999992,,14,62d70d1f219a25bcf1db0bfa,,13,,black,60.24096385542697,001,1,beliefs_scatterplots_pretest,664ed6ba62fd8adeb1015beb,,,,,2024.1.1,,,12,0,,,,,space,565.9613000000007,,135.27949999999998,,,2,,,,PARTICIPANT,,1,12,high_corr,,,,,,6,,,,2024-05-23_07h22.40.627,,,5,664ee0ab45326734a5ede843
﻿Win32,5.5,,,565.9616000000015,,,5,Higher levels of empathy are linked to stronger interpersonal relationships.,beliefs_scatterplots_pretest,,2024-05-23_07h22.57.174,,5.461500000000001,0.25080000000082237,,7,62d70d1f219a25bcf1db0bfa,,6,,black,60.24096385542697,001,2,beliefs_scatterplots_pretest,664ed6ba62fd8adeb1015beb,,,,,2024.1.1,,,13,0,,,,,space,571.6948999999985,,4.778700000002914,,,1,,,,PARTICIPANT,,1,13,high_corr,,,,,,6,,,,2024-05-23_07h22.40.627,,,6,664ee0ab45326734a5ede843
﻿Win32,3.5,,,571.695,,,4,Greater water consumption is linked to improved kidney function.,beliefs_scatterplots_pretest,,2024-05-23_07h22.57.174,,4.316600000001472,0.3346999999993159,,15,62d70d1f219a25bcf1db0bfa,,14,,black,60.24096385542697,001,0,beliefs_scatterplots_pretest,664ed6ba62fd8adeb1015beb,,,,,2024.1.1,,,14,0,,,,,space,576.3781999999993,,3.8004999999999427,,,1,,,,PARTICIPANT,,1,14,low_corr,,,,,,7,,,,2024-05-23_07h22.40.627,,,7,664ee0ab45326734a5ede843
﻿Win32,NA,,,576.3785,,,NA,Please set both sliders to 7.,beliefs_scatterplots_pretest,,2024-05-23_07h22.57.174,,5.130699999999251,1.7411000000014383,,27,62d70d1f219a25bcf1db0bfa,,26,,red,60.24096385542697,001,NA,beliefs_scatterplots_pretest,664ed6ba62fd8adeb1015beb,,,,,2024.1.1,,,15,0,,,,,space,583.2766000000015,,3.980599999997821,,,NA,,,,PARTICIPANT,,1,15,AC,,,,,,7,,,,2024-05-23_07h22.40.627,,,7,664ee0ab45326734a5ede843
﻿Win32,3.5,,,583.2768999999985,,,3,"As the amount of sleep decreases, the risk of obesity increases.",beliefs_scatterplots_pretest,,2024-05-23_07h22.57.174,,6.731800000000703,0.2173999999985199,,16,62d70d1f219a25bcf1db0bfa,,15,,black,60.24096385542697,001,0,beliefs_scatterplots_pretest,664ed6ba62fd8adeb1015beb,,,,,2024.1.1,,,16,0,,,,,space,590.2446999999993,,5.740499999999997,,,1,,,,PARTICIPANT,,1,16,low_corr,,,,,,2,,,,2024-05-23_07h22.40.627,,,2,664ee0ab45326734a5ede843
﻿Win32,6.5,,,590.2448999999986,,,4.5,Increased use of energy-efficient appliances is associated with lower electricity bills.,beliefs_scatterplots_pretest,,2024-05-23_07h22.57.174,,8.179600000001528,0.056800000000748696,,12,62d70d1f219a25bcf1db0bfa,,11,,black,60.24096385542697,001,1,beliefs_scatterplots_pretest,664ed6ba62fd8adeb1015beb,,,,,2024.1.1,,,17,0,,,,,space,598.5093000000007,,7.180300000000784,,,1,,,,PARTICIPANT,,1,17,high_corr,,,,,,6,,,,2024-05-23_07h22.40.627,,,5,664ee0ab45326734a5ede843
﻿Win32,3.5,,,598.5096999999993,,,4.5,Greater intake of omega-3 fatty acids is associated with lower inflammation levels.,beliefs_scatterplots_pretest,,2024-05-23_07h22.57.174,,5.388499999999908,0.16480000000080963,,17,62d70d1f219a25bcf1db0bfa,,16,,black,60.24096385542697,001,1,beliefs_scatterplots_pretest,664ed6ba62fd8adeb1015beb,,,,,2024.1.1,,,18,0,,,,,space,604.0765,,4.664499999999975,,,1,,,,PARTICIPANT,,1,18,low_corr,,,,,,4,,,,2024-05-23_07h22.40.627,,,4,664ee0ab45326734a5ede843
﻿Win32,5.5,,,604.0768999999985,,,4,Greater frequency of exercise is linked to a lower risk of depression.,beliefs_scatterplots_pretest,,2024-05-23_07h22.57.174,,8.466700000003016,0.9710999999978185,,3,62d70d1f219a25bcf1db0bfa,,2,,black,60.24096385542697,001,2,beliefs_scatterplots_pretest,664ed6ba62fd8adeb1015beb,,,,,2024.1.1,,,19,0,,,,,space,613.5423999999986,,4.189399999998614,,,1,,,,PARTICIPANT,,1,19,high_corr,,,,,,6,,,,2024-05-23_07h22.40.627,,,3,664ee0ab45326734a5ede843
﻿Win32,6.5,,,613.5426999999993,,,5,"As pedestrian-friendly infrastructure improves, urban walkability tends to increase.",beliefs_scatterplots_pretest,,2024-05-23_07h22.57.174,,7.26930000000084,0.18389999999851625,,13,62d70d1f219a25bcf1db0bfa,,12,,black,60.24096385542697,001,2,beliefs_scatterplots_pretest,664ed6ba62fd8adeb1015beb,,,,,2024.1.1,,,20,0,,,,,space,621.0255,,5.6164000000022725,,,1,,,,PARTICIPANT,,1,20,high_corr,,,,,,5,,,,2024-05-23_07h22.40.627,,,5,664ee0ab45326734a5ede843
﻿Win32,NA,,,621.026,,,NA,Please set both sliders to 7.,beliefs_scatterplots_pretest,,2024-05-23_07h22.57.174,,2.9933000000006587,0.19189999999844076,,26,62d70d1f219a25bcf1db0bfa,,25,,red,60.24096385542697,001,NA,beliefs_scatterplots_pretest,664ed6ba62fd8adeb1015beb,,,,,2024.1.1,,,21,0,,,,,space,624.2258000000007,,1.8123999999985472,,,NA,,,,PARTICIPANT,,1,21,AC,,,,,,7,,,,2024-05-23_07h22.40.627,,,7,664ee0ab45326734a5ede843
﻿Win32,NA,,,624.2261999999993,,,NA,Please set both sliders to 1.,beliefs_scatterplots_pretest,,2024-05-23_07h22.57.174,,2.658999999999992,0.5258999999985008,,29,62d70d1f219a25bcf1db0bfa,,28,,red,60.24096385542697,001,NA,beliefs_scatterplots_pretest,664ed6ba62fd8adeb1015beb,,,,,2024.1.1,,,22,0,,,,,space,627.4258000000008,,1.7043000000006714,,,NA,,,,PARTICIPANT,,1,22,AC,,,,,,1,,,,2024-05-23_07h22.40.627,,,1,664ee0ab45326734a5ede843
﻿Win32,7,,,627.4261000000015,,,4,"As the quality of healthcare improves, life expectancy tends to increase.",beliefs_scatterplots_pretest,,2024-05-23_07h22.57.174,,18.109399999998573,0.15609999999776392,,5,62d70d1f219a25bcf1db0bfa,,4,,black,60.24096385542697,001,2,beliefs_scatterplots_pretest,664ed6ba62fd8adeb1015beb,,,,,2024.1.1,,,23,0,,,,,space,645.7086999999992,,17.07350000000008,,,0,,,,PARTICIPANT,,1,23,high_corr,,,,,,7,,,,2024-05-23_07h22.40.627,,,7,664ee0ab45326734a5ede843
﻿Win32,NA,,,645.7091999999992,,,NA,Please set both sliders to 7.,beliefs_scatterplots_pretest,,2024-05-23_07h22.57.174,,2.4273000000007414,0.20400000000006457,,28,62d70d1f219a25bcf1db0bfa,,27,,red,60.24096385542697,001,NA,beliefs_scatterplots_pretest,664ed6ba62fd8adeb1015beb,,,,,2024.1.1,,,24,0,,,,,space,648.3588999999985,,1.404199999999264,,,NA,,,,PARTICIPANT,,1,24,AC,,,,,,7,,,,2024-05-23_07h22.40.627,,,7,664ee0ab45326734a5ede843
﻿Win32,2.5,,,648.3596000000015,,,4,Higher consumption of nuts and seeds is associated with reduced risk of cardiovascular diseases.,beliefs_scatterplots_pretest,,2024-05-23_07h22.57.174,,8.02989999999852,0.1627000000029284,,24,62d70d1f219a25bcf1db0bfa,,23,,black,60.24096385542697,001,2,beliefs_scatterplots_pretest,664ed6ba62fd8adeb1015beb,,,,,2024.1.1,,,25,0,,,,,space,656.5583999999985,,7.166699999999196,,,1,,,,PARTICIPANT,,1,25,low_corr,,,,,,6,,,,2024-05-23_07h22.40.627,,,5,664ee0ab45326734a5ede843
﻿Win32,3,,,656.5591000000015,,,4.5,"As cultural preservation efforts increase, community identity and cohesion tend to strengthen.",beliefs_scatterplots_pretest,,2024-05-23_07h22.57.174,,5.708999999999946,0.10300000000006548,,25,62d70d1f219a25bcf1db0bfa,,24,,black,60.24096385542697,001,1,beliefs_scatterplots_pretest,664ed6ba62fd8adeb1015beb,,,,,2024.1.1,,,26,0,,,,,space,662.3923000000008,,4.472699999999236,,,0,,,,PARTICIPANT,,1,26,low_corr,,,,,,4,,,,2024-05-23_07h22.40.627,,,5,664ee0ab45326734a5ede843
﻿Win32,3,,,662.3926000000015,,,4.5,"As participation in community arts programs increases, local cultural engagement tends to rise.",beliefs_scatterplots_pretest,,2024-05-23_07h22.57.174,,7.719400000002224,0.25319999999919673,,21,62d70d1f219a25bcf1db0bfa,,20,,black,60.24096385542697,001,1,beliefs_scatterplots_pretest,664ed6ba62fd8adeb1015beb,,,,,2024.1.1,,,27,0,,,,,space,670.3915000000001,,6.620499999999993,,,2,,,,PARTICIPANT,,1,27,low_corr,,,,,,4,,,,2024-05-23_07h22.40.627,,,4,664ee0ab45326734a5ede843
﻿Win32,6,,,670.3918999999985,,,3,Higher sugar consumption is associated with an increased risk of dental cavities.,beliefs_scatterplots_pretest,,2024-05-23_07h22.57.174,,7.670499999999947,0.15960000000143282,,10,62d70d1f219a25bcf1db0bfa,,9,,black,60.24096385542697,001,0,beliefs_scatterplots_pretest,664ed6ba62fd8adeb1015beb,,,,,2024.1.1,,,28,0,,,,,space,678.2418999999985,,6.625499999999988,,,2,,,,PARTICIPANT,,1,28,high_corr,,,,,,5,,,,2024-05-23_07h22.40.627,,,3,664ee0ab45326734a5ede843
﻿Win32,5.5,,,678.2421999999992,,,4,Higher levels of civic engagement are linked to a stronger sense of community.,beliefs_scatterplots_pretest,,2024-05-23_07h22.57.174,,4.62229999999704,0.20020000000295113,,9,62d70d1f219a25bcf1db0bfa,,8,,black,60.24096385542697,001,0,beliefs_scatterplots_pretest,664ed6ba62fd8adeb1015beb,,,,,2024.1.1,,,29,0,,,,,space,683.0916000000014,,3.6837999999970634,,,1,,,,PARTICIPANT,,1,29,high_corr,,,,,,4,,,,2024-05-23_07h22.40.627,,,4,664ee0ab45326734a5ede843
﻿Win32,6,,,683.0918999999985,,,3,Higher attendance at preventive health screenings is linked to earlier detection of diseases.,beliefs_scatterplots_pretest,,2024-05-23_07h22.57.174,,7.033200000003035,1.0204000000021551,,11,62d70d1f219a25bcf1db0bfa,,10,,black,60.24096385542697,001,2,beliefs_scatterplots_pretest,664ed6ba62fd8adeb1015beb,,,,,2024.1.1,,,30,0,,,,,space,691.175,,6.438699999999244,,,0,,,,PARTICIPANT,,1,30,high_corr,,,,,,4,,,,2024-05-23_07h22.40.627,,,3,664ee0ab45326734a5ede843
﻿Win32,,,,,,,,,beliefs_scatterplots_pretest,,2024-05-23_07h22.57.174,,,,,,62d70d1f219a25bcf1db0bfa,,,,,60.24096385542697,001,,beliefs_scatterplots_pretest,664ed6ba62fd8adeb1015beb,,,,,2024.1.1,,,,,,,,700.2413999999985,,,,,,691.1756000000015,,,,,PARTICIPANT,,,,,,,,,,,,,,2024-05-23_07h22.40.627,,,,664ee0ab45326734a5ede843
﻿Win32,,,,,,,,,beliefs_scatterplots_pretest,702.8913000000008,2024-05-23_07h22.57.174,,,,,,62d70d1f219a25bcf1db0bfa,,,,,60.24096385542697,001,,beliefs_scatterplots_pretest,664ed6ba62fd8adeb1015beb,,,,,2024.1.1,,,,,,,,,,,,,,,,,,,PARTICIPANT,,,,,,,,,700.2415,,,,,2024-05-23_07h22.40.627,,,,664ee0ab45326734a5ede843
﻿MacIntel,,,,,1.8265000000000002,,,,beliefs_scatterplots_pretest,,2024-05-23_08h16.01.045,,,,,,6319fe78b47336fe7e05230c,,,,,59.88023952095874,001,,beliefs_scatterplots_pretest,664ed6ba62fd8adeb1015beb,,,,,2024.1.1,,,,,,,,,,,,,,,,,,,PARTICIPANT,,,,,0.00020000004768405688,,,,,,,,,2024-05-23_08h15.58.856,,,,664eecfb48502b2b93ede089
﻿MacIntel,,,,,,,,,beliefs_scatterplots_pretest,,2024-05-23_08h16.01.045,46.58610000002385,,,,,6319fe78b47336fe7e05230c,,,,,59.88023952095874,001,,beliefs_scatterplots_pretest,664ed6ba62fd8adeb1015beb,,,,,2024.1.1,,,,,,,,,,,,,,,,46.585899999976164,,,PARTICIPANT,,,,,,45.465399999976164,,,,,,,,2024-05-23_08h15.58.856,51.502899999976165,,,664eecfb48502b2b93ede089
﻿MacIntel,,,,,,,,,beliefs_scatterplots_pretest,,2024-05-23_08h16.01.045,,,,51.50300000000001,,6319fe78b47336fe7e05230c,,,,,59.88023952095874,001,,beliefs_scatterplots_pretest,664ed6ba62fd8adeb1015beb,,,,,2024.1.1,59,,,,,Male,,,,,,,59.59279999995232,,,,,,PARTICIPANT,,,,,,,,,,,,,,2024-05-23_08h15.58.856,,,,664eecfb48502b2b93ede089
﻿MacIntel,,,95.64220000004768,,,109.15489999997615,,,beliefs_scatterplots_pretest,,2024-05-23_08h16.01.045,,,,,,6319fe78b47336fe7e05230c,,,95.64270000004768,,59.88023952095874,001,,beliefs_scatterplots_pretest,664ed6ba62fd8adeb1015beb,,,,,2024.1.1,,,,,,,,,,,,,,,,,,,PARTICIPANT,,,,,,,,88.01070000004768,,,,,,2024-05-23_08h15.58.856,,,,664eecfb48502b2b93ede089
﻿MacIntel,,,,,,,,,beliefs_scatterplots_pretest,,2024-05-23_08h16.01.045,,,,,,6319fe78b47336fe7e05230c,,,,,59.88023952095874,001,,beliefs_scatterplots_pretest,664ed6ba62fd8adeb1015beb,,,,,2024.1.1,,,,,,,1.9639999999999986,,,,,,,,,,,,PARTICIPANT,118.38020000004768,,,,,,7.232699999928471,,,,space,109.155,,2024-05-23_08h15.58.856,,4,,664eecfb48502b2b93ede089
﻿MacIntel,,,,,,,,,beliefs_scatterplots_pretest,,2024-05-23_08h16.01.045,,,,,,6319fe78b47336fe7e05230c,118.38029999995231,,,,59.88023952095874,001,,beliefs_scatterplots_pretest,664ed6ba62fd8adeb1015beb,,,,,2024.1.1,,,,,,,,,,,131.41750000000002,,,,,,,,PARTICIPANT,,,,,,,,,,,,,,2024-05-23_08h15.58.856,,,,664eecfb48502b2b93ede089
﻿MacIntel,,1,,,,,,,beliefs_scatterplots_pretest,,2024-05-23_08h16.01.045,,,,,,6319fe78b47336fe7e05230c,,,,,59.88023952095874,001,,beliefs_scatterplots_pretest,664ed6ba62fd8adeb1015beb,131.41760000002387,space,7.454600000023845,0.8714000000953774,2024.1.1,,,,,,,,,,,,,,,,,,,PARTICIPANT,,,,,,,,,,,,,139.77200000000002,2024-05-23_08h15.58.856,,,,664eecfb48502b2b93ede089
﻿MacIntel,,,,,,,,,beliefs_scatterplots_pretest,,2024-05-23_08h16.01.045,,,,,,6319fe78b47336fe7e05230c,,,,,59.88023952095874,001,,beliefs_scatterplots_pretest,664ed6ba62fd8adeb1015beb,,,,,2024.1.1,,,,,,,,,,,,,,,,,143.64870000004768,139.77210000002384,PARTICIPANT,,,,,,,,,,,,,,2024-05-23_08h15.58.856,,,,664eecfb48502b2b93ede089
﻿MacIntel,NA,,,143.65960000002386,,,NA,Please set both sliders to 1.,beliefs_scatterplots_pretest,,2024-05-23_08h16.01.045,,7.8185,2.6880999999046367,,31,6319fe78b47336fe7e05230c,,30,,red,59.88023952095874,001,NA,beliefs_scatterplots_pretest,664ed6ba62fd8adeb1015beb,,,,,2024.1.1,,,0,0,,,,,space,154.18660000002384,,5.402799999952293,,,NA,,,,PARTICIPANT,,1,0,AC,,,,,,1,,,,2024-05-23_08h15.58.856,,,1,664eecfb48502b2b93ede089
﻿MacIntel,6.5,,,154.187,,,4,"As caffeine consumption increases, so does the average heart rate.",beliefs_scatterplots_pretest,,2024-05-23_08h16.01.045,,10.669799999952318,4.199299999952331,,2,6319fe78b47336fe7e05230c,,1,,black,59.88023952095874,001,0,beliefs_scatterplots_pretest,664ed6ba62fd8adeb1015beb,,,,,2024.1.1,,,1,0,,,,,space,169.07729999995232,,8.879200000047689,,,1,,,,PARTICIPANT,,1,1,high_corr,,,,,,6,,,,2024-05-23_08h15.58.856,,,3,664eecfb48502b2b93ede089
﻿MacIntel,NA,,,169.08529999995233,,,NA,Please set both sliders to 1.,beliefs_scatterplots_pretest,,2024-05-23_08h16.01.045,,4.3473999999761475,1.1283999999761534,,29,6319fe78b47336fe7e05230c,,28,,red,59.88023952095874,001,NA,beliefs_scatterplots_pretest,664ed6ba62fd8adeb1015beb,,,,,2024.1.1,,,2,0,,,,,space,174.58189999997617,,3.3093000000715165,,,NA,,,,PARTICIPANT,,1,2,AC,,,,,,1,,,,2024-05-23_08h15.58.856,,,1,664eecfb48502b2b93ede089
﻿MacIntel,2.5,,,174.58210000002384,,,4.5,Higher consumption of spicy foods is associated with a lower risk of certain types of cancer.,beliefs_scatterplots_pretest,,2024-05-23_08h16.01.045,,14.025899999976161,4.003399999976153,,22,6319fe78b47336fe7e05230c,,21,,black,59.88023952095874,001,1,beliefs_scatterplots_pretest,664ed6ba62fd8adeb1015beb,,,,,2024.1.1,,,3,0,,,,,space,190.59060000002384,,6.86879999995233,,,1,,,,PARTICIPANT,,1,3,low_corr,,,,,,5,,,,2024-05-23_08h15.58.856,,,5,664eecfb48502b2b93ede089
﻿MacIntel,5.5,,,190.59079999995234,,,3,"As soil quality degrades, agricultural productivity tends to decrease.",beliefs_scatterplots_pretest,,2024-05-23_08h16.01.045,,9.648399999976164,0.8483999999761807,,8,6319fe78b47336fe7e05230c,,7,,black,59.88023952095874,001,2,beliefs_scatterplots_pretest,664ed6ba62fd8adeb1015beb,,,,,2024.1.1,,,4,0,,,,,space,201.11510000002386,,7.249700000047682,,,1,,,,PARTICIPANT,,1,4,high_corr,,,,,,6,,,,2024-05-23_08h15.58.856,,,5,664eecfb48502b2b93ede089
﻿MacIntel,3.5,,,201.11529999995233,,,5,Higher frequency of family meals is linked to better eating habits in children.,beliefs_scatterplots_pretest,,2024-05-23_08h16.01.045,,7.583200000047668,0.5528000000715281,,20,6319fe78b47336fe7e05230c,,19,,black,59.88023952095874,001,2,beliefs_scatterplots_pretest,664ed6ba62fd8adeb1015beb,,,,,2024.1.1,,,5,0,,,,,space,209.27310000002385,,6.3843000000715335,,,1,,,,PARTICIPANT,,1,5,low_corr,,,,,,5,,,,2024-05-23_08h15.58.856,,,5,664eecfb48502b2b93ede089
﻿MacIntel,5.5,,,209.27329999995234,,,4,Higher levels of civic engagement are linked to a stronger sense of community.,beliefs_scatterplots_pretest,,2024-05-23_08h16.01.045,,15.514799999952317,0.7049999999999841,,9,6319fe78b47336fe7e05230c,,8,,black,59.88023952095874,001,0,beliefs_scatterplots_pretest,664ed6ba62fd8adeb1015beb,,,,,2024.1.1,,,6,0,,,,,space,225.51429999995233,,8.078299999952321,,,1,,,,PARTICIPANT,,1,6,high_corr,,,,,,4,,,,2024-05-23_08h15.58.856,,,4,664eecfb48502b2b93ede089
﻿MacIntel,3.5,,,225.51450000000003,,,3,"As the amount of sleep decreases, the risk of obesity increases.",beliefs_scatterplots_pretest,,2024-05-23_08h16.01.045,,11.287600000023843,0.5032000000476842,,16,6319fe78b47336fe7e05230c,,15,,black,59.88023952095874,001,0,beliefs_scatterplots_pretest,664ed6ba62fd8adeb1015beb,,,,,2024.1.1,,,7,0,,,,,space,237.3312000000477,,9.824000000000012,,,1,,,,PARTICIPANT,,1,7,low_corr,,,,,,4,,,,2024-05-23_08h15.58.856,,,3,664eecfb48502b2b93ede089
﻿MacIntel,6,,,237.33139999997618,,,3,Higher attendance at preventive health screenings is linked to earlier detection of diseases.,beliefs_scatterplots_pretest,,2024-05-23_08h16.01.045,,5.960199999928477,1.0676000000238446,,11,6319fe78b47336fe7e05230c,,10,,black,59.88023952095874,001,2,beliefs_scatterplots_pretest,664ed6ba62fd8adeb1015beb,,,,,2024.1.1,,,8,0,,,,,space,244.38150000000002,,4.985600000023851,,,0,,,,PARTICIPANT,,1,8,high_corr,,,,,,7,,,,2024-05-23_08h15.58.856,,,6,664eecfb48502b2b93ede089
﻿MacIntel,1,,,244.38160000002387,,,3,Higher exposure to air conditioning is associated with increased respiratory issues.,beliefs_scatterplots_pretest,,2024-05-23_08h16.01.045,,8.339899999976154,2.793400000095346,,19,6319fe78b47336fe7e05230c,,18,,black,59.88023952095874,001,2,beliefs_scatterplots_pretest,664ed6ba62fd8adeb1015beb,,,,,2024.1.1,,,9,0,,,,,space,255.5545,,5.067799999952314,,,0,,,,PARTICIPANT,,1,9,low_corr,,,,,,2,,,,2024-05-23_08h15.58.856,,,2,664eecfb48502b2b93ede089
﻿MacIntel,6.5,,,255.55479999995234,,,5,"As pedestrian-friendly infrastructure improves, urban walkability tends to increase.",beliefs_scatterplots_pretest,,2024-05-23_08h16.01.045,,11.761300000071515,0.6763000000714783,,13,6319fe78b47336fe7e05230c,,12,,black,59.88023952095874,001,2,beliefs_scatterplots_pretest,664ed6ba62fd8adeb1015beb,,,,,2024.1.1,,,10,0,,,,,space,268.0192999999523,,8.956899999976144,,,1,,,,PARTICIPANT,,1,10,high_corr,,,,,,7,,,,2024-05-23_08h15.58.856,,,6,664eecfb48502b2b93ede089
﻿MacIntel,3.5,,,268.01960000002384,,,4.5,Greater intake of omega-3 fatty acids is associated with lower inflammation levels.,beliefs_scatterplots_pretest,,2024-05-23_08h16.01.045,,6.615000000000009,0.8204000000953897,,17,6319fe78b47336fe7e05230c,,16,,black,59.88023952095874,001,1,beliefs_scatterplots_pretest,664ed6ba62fd8adeb1015beb,,,,,2024.1.1,,,11,0,,,,,space,275.4773999999761,,5.6474999999999795,,,1,,,,PARTICIPANT,,1,11,low_corr,,,,,,5,,,,2024-05-23_08h15.58.856,,,3,664eecfb48502b2b93ede089
﻿MacIntel,6,,,275.47770000004766,,,4.5,Greater regularity in sleep patterns is associated with improved mental health.,beliefs_scatterplots_pretest,,2024-05-23_08h16.01.045,,6.395199999928423,0.20489999997613495,,14,6319fe78b47336fe7e05230c,,13,,black,59.88023952095874,001,1,beliefs_scatterplots_pretest,664ed6ba62fd8adeb1015beb,,,,,2024.1.1,,,12,0,,,,,space,282.10410000002383,,5.3982999999523145,,,2,,,,PARTICIPANT,,1,12,high_corr,,,,,,5,,,,2024-05-23_08h15.58.856,,,3,664eecfb48502b2b93ede089
﻿MacIntel,7,,,282.1042999999523,,,4,"As the quality of healthcare improves, life expectancy tends to increase.",beliefs_scatterplots_pretest,,2024-05-23_08h16.01.045,,6.2096000000238405,0.36120000004768826,,5,6319fe78b47336fe7e05230c,,4,,black,59.88023952095874,001,2,beliefs_scatterplots_pretest,664ed6ba62fd8adeb1015beb,,,,,2024.1.1,,,13,0,,,,,space,288.6977999999523,,5.253400000095382,,,0,,,,PARTICIPANT,,1,13,high_corr,,,,,,7,,,,2024-05-23_08h15.58.856,,,5,664eecfb48502b2b93ede089
﻿MacIntel,NA,,,288.698,,,NA,Please set both sliders to 1.,beliefs_scatterplots_pretest,,2024-05-23_08h16.01.045,,5.697100000023795,0.7007000000476751,,30,6319fe78b47336fe7e05230c,,29,,red,59.88023952095874,001,NA,beliefs_scatterplots_pretest,664ed6ba62fd8adeb1015beb,,,,,2024.1.1,,,14,0,,,,,space,295.12220000004766,,3.5324999999999704,,,NA,,,,PARTICIPANT,,1,14,AC,,,,,,1,,,,2024-05-23_08h15.58.856,,,1,664eecfb48502b2b93ede089
﻿MacIntel,3,,,295.12239999997615,,,4.5,"As participation in community arts programs increases, local cultural engagement tends to rise.",beliefs_scatterplots_pretest,,2024-05-23_08h16.01.045,,9.91940000009538,0.7480000000000473,,21,6319fe78b47336fe7e05230c,,20,,black,59.88023952095874,001,1,beliefs_scatterplots_pretest,664ed6ba62fd8adeb1015beb,,,,,2024.1.1,,,15,0,,,,,space,305.8116000000238,,4.993899999976122,,,2,,,,PARTICIPANT,,1,15,low_corr,,,,,,6,,,,2024-05-23_08h15.58.856,,,5,664eecfb48502b2b93ede089
﻿MacIntel,6,,,305.8117999999523,,,3,Higher sugar consumption is associated with an increased risk of dental cavities.,beliefs_scatterplots_pretest,,2024-05-23_08h16.01.045,,6.797200000047667,0.5495000000000232,,10,6319fe78b47336fe7e05230c,,9,,black,59.88023952095874,001,0,beliefs_scatterplots_pretest,664ed6ba62fd8adeb1015beb,,,,,2024.1.1,,,16,0,,,,,space,313.1852999999523,,5.7057000000476705,,,2,,,,PARTICIPANT,,1,16,high_corr,,,,,,7,,,,2024-05-23_08h15.58.856,,,3,664eecfb48502b2b93ede089
﻿MacIntel,2.5,,,313.18560000002384,,,4,Higher consumption of nuts and seeds is associated with reduced risk of cardiovascular diseases.,beliefs_scatterplots_pretest,,2024-05-23_08h16.01.045,,5.433799999952328,0.3322000000476919,,24,6319fe78b47336fe7e05230c,,23,,black,59.88023952095874,001,2,beliefs_scatterplots_pretest,664ed6ba62fd8adeb1015beb,,,,,2024.1.1,,,17,0,,,,,space,320.4475,,6.903399999976159,,,1,,,,PARTICIPANT,,1,17,low_corr,,,,,,6,,,,2024-05-23_08h15.58.856,,,3,664eecfb48502b2b93ede089
﻿MacIntel,5.5,,,320.4477000000477,,,5,Higher levels of empathy are linked to stronger interpersonal relationships.,beliefs_scatterplots_pretest,,2024-05-23_08h16.01.045,,7.137699999928486,0.518699999928458,,7,6319fe78b47336fe7e05230c,,6,,black,59.88023952095874,001,2,beliefs_scatterplots_pretest,664ed6ba62fd8adeb1015beb,,,,,2024.1.1,,,18,0,,,,,space,328.12110000002383,,5.166199999928494,,,1,,,,PARTICIPANT,,1,18,high_corr,,,,,,6,,,,2024-05-23_08h15.58.856,,,5,664eecfb48502b2b93ede089
﻿MacIntel,3,,,328.1213999999761,,,4,Greater adherence to a Mediterranean diet is linked to a lower risk of neurodegenerative diseases.,beliefs_scatterplots_pretest,,2024-05-23_08h16.01.045,,6.2581000000238305,2.2538000000715215,,23,6319fe78b47336fe7e05230c,,22,,black,59.88023952095874,001,0,beliefs_scatterplots_pretest,664ed6ba62fd8adeb1015beb,,,,,2024.1.1,,,19,0,,,,,space,337.6482999999523,,8.125700000047686,,,2,,,,PARTICIPANT,,1,19,low_corr,,,,,,5,,,,2024-05-23_08h15.58.856,,,3,664eecfb48502b2b93ede089
﻿MacIntel,3,,,337.64870000004765,,,4.5,"As cultural preservation efforts increase, community identity and cohesion tend to strengthen.",beliefs_scatterplots_pretest,,2024-05-23_08h16.01.045,,11.236000000000047,2.3381000000238146,,25,6319fe78b47336fe7e05230c,,24,,black,59.88023952095874,001,1,beliefs_scatterplots_pretest,664ed6ba62fd8adeb1015beb,,,,,2024.1.1,,,20,0,,,,,space,352.8195,,12.794499999999971,,,0,,,,PARTICIPANT,,1,20,low_corr,,,,,,2,,,,2024-05-23_08h15.58.856,,,5,664eecfb48502b2b93ede089
﻿MacIntel,NA,,,352.81970000004765,,,NA,Please set both sliders to 7.,beliefs_scatterplots_pretest,,2024-05-23_08h16.01.045,,5.846099999904595,0.8371999999284299,,26,6319fe78b47336fe7e05230c,,25,,red,59.88023952095874,001,NA,beliefs_scatterplots_pretest,664ed6ba62fd8adeb1015beb,,,,,2024.1.1,,,21,0,,,,,space,359.5251000000238,,4.663000000000011,,,NA,,,,PARTICIPANT,,1,21,AC,,,,,,7,,,,2024-05-23_08h15.58.856,,,7,664eecfb48502b2b93ede089
﻿MacIntel,NA,,,359.5252999999523,,,NA,Please set both sliders to 7.,beliefs_scatterplots_pretest,,2024-05-23_08h16.01.045,,5.777100000023836,0.7169999999999845,,27,6319fe78b47336fe7e05230c,,26,,red,59.88023952095874,001,NA,beliefs_scatterplots_pretest,664ed6ba62fd8adeb1015beb,,,,,2024.1.1,,,22,0,,,,,space,366.0442999999523,,4.468999999999994,,,NA,,,,PARTICIPANT,,1,22,AC,,,,,,7,,,,2024-05-23_08h15.58.856,,,7,664eecfb48502b2b93ede089
﻿MacIntel,6.5,,,366.04449999999997,,,3,Greater use of helmets is associated with a lower incidence of head injuries in cyclists.,beliefs_scatterplots_pretest,,2024-05-23_08h16.01.045,,6.85929999995227,0.47620000004769736,,4,6319fe78b47336fe7e05230c,,3,,black,59.88023952095874,001,2,beliefs_scatterplots_pretest,664ed6ba62fd8adeb1015beb,,,,,2024.1.1,,,23,0,,,,,space,374.56149999999997,,8.01860000002381,,,1,,,,PARTICIPANT,,1,23,high_corr,,,,,,6,,,,2024-05-23_08h15.58.856,,,5,664eecfb48502b2b93ede089
﻿MacIntel,NA,,,374.5616000000238,,,NA,Please set both sliders to 7.,beliefs_scatterplots_pretest,,2024-05-23_08h16.01.045,,2.8322999999522835,0.507399999976144,,28,6319fe78b47336fe7e05230c,,27,,red,59.88023952095874,001,NA,beliefs_scatterplots_pretest,664ed6ba62fd8adeb1015beb,,,,,2024.1.1,,,24,0,,,,,space,377.9271000000238,,1.8558999999761454,,,NA,,,,PARTICIPANT,,1,24,AC,,,,,,7,,,,2024-05-23_08h15.58.856,,,7,664eecfb48502b2b93ede089
﻿MacIntel,3.5,,,377.9272999999523,,,4,Greater water consumption is linked to improved kidney function.,beliefs_scatterplots_pretest,,2024-05-23_08h16.01.045,,5.404399999976135,5.589200000047697,,15,6319fe78b47336fe7e05230c,,14,,black,59.88023952095874,001,0,beliefs_scatterplots_pretest,664ed6ba62fd8adeb1015beb,,,,,2024.1.1,,,25,0,,,,,space,390.9232999999523,,9.412799999952313,,,1,,,,PARTICIPANT,,1,25,low_corr,,,,,,7,,,,2024-05-23_08h15.58.856,,,4,664eecfb48502b2b93ede089
﻿MacIntel,6.5,,,390.9313999999761,,,4.5,Increased exposure to sunlight is correlated with higher vitamin D levels.,beliefs_scatterplots_pretest,,2024-05-23_08h16.01.045,,9.186799999952314,0.49769999992844305,,1,6319fe78b47336fe7e05230c,,0,,black,59.88023952095874,001,1,beliefs_scatterplots_pretest,664ed6ba62fd8adeb1015beb,,,,,2024.1.1,,,26,0,,,,,space,400.6381000000238,,7.00649999999996,,,1,,,,PARTICIPANT,,1,26,high_corr,,,,,,7,,,,2024-05-23_08h15.58.856,,,4,664eecfb48502b2b93ede089
﻿MacIntel,3,,,400.6383999999761,,,5,Greater exposure to music education is linked to enhanced cognitive development in children.,beliefs_scatterplots_pretest,,2024-05-23_08h16.01.045,,11.02439999997614,4.224999999999966,,18,6319fe78b47336fe7e05230c,,17,,black,59.88023952095874,001,2,beliefs_scatterplots_pretest,664ed6ba62fd8adeb1015beb,,,,,2024.1.1,,,27,0,,,,,space,412.2972999999523,,5.380600000023833,,,0,,,,PARTICIPANT,,1,27,low_corr,,,,,,3,,,,2024-05-23_08h15.58.856,,,4,664eecfb48502b2b93ede089
﻿MacIntel,6.5,,,412.2976000000238,,,4.5,Increased use of energy-efficient appliances is associated with lower electricity bills.,beliefs_scatterplots_pretest,,2024-05-23_08h16.01.045,,10.524600000023838,0.5009999999999764,,12,6319fe78b47336fe7e05230c,,11,,black,59.88023952095874,001,1,beliefs_scatterplots_pretest,664ed6ba62fd8adeb1015beb,,,,,2024.1.1,,,28,0,,,,,space,423.34549999999996,,7.382499999999993,,,1,,,,PARTICIPANT,,1,28,high_corr,,,,,,6,,,,2024-05-23_08h15.58.856,,,5,664eecfb48502b2b93ede089
﻿MacIntel,6.5,,,423.34570000004766,,,4.5,"As access to clean water improves, the incidence of waterborne diseases decreases.",beliefs_scatterplots_pretest,,2024-05-23_08h16.01.045,,6.657900000095367,1.5476999999284544,,6,6319fe78b47336fe7e05230c,,5,,black,59.88023952095874,001,1,beliefs_scatterplots_pretest,664ed6ba62fd8adeb1015beb,,,,,2024.1.1,,,29,0,,,,,space,431.58010000002383,,4.976299999952289,,,1,,,,PARTICIPANT,,1,29,high_corr,,,,,,6,,,,2024-05-23_08h15.58.856,,,5,664eecfb48502b2b93ede089
﻿MacIntel,5.5,,,431.5803999999761,,,4,Greater frequency of exercise is linked to a lower risk of depression.,beliefs_scatterplots_pretest,,2024-05-23_08h16.01.045,,4.856399999976134,0.27199999999999136,,3,6319fe78b47336fe7e05230c,,2,,black,59.88023952095874,001,2,beliefs_scatterplots_pretest,664ed6ba62fd8adeb1015beb,,,,,2024.1.1,,,30,0,,,,,space,436.7347999999523,,3.527499999999975,,,1,,,,PARTICIPANT,,1,30,high_corr,,,,,,7,,,,2024-05-23_08h15.58.856,,,5,664eecfb48502b2b93ede089
﻿MacIntel,,,,,,,,,beliefs_scatterplots_pretest,,2024-05-23_08h16.01.045,,,,,,6319fe78b47336fe7e05230c,,,,,59.88023952095874,001,,beliefs_scatterplots_pretest,664ed6ba62fd8adeb1015beb,,,,,2024.1.1,,,,,,,,447.47610000002385,,,,,,436.7352999999523,,,,,PARTICIPANT,,,,,,,,,,,,,,2024-05-23_08h15.58.856,,,,664eecfb48502b2b93ede089
﻿MacIntel,,,,,,,,,beliefs_scatterplots_pretest,450.6395,2024-05-23_08h16.01.045,,,,,,6319fe78b47336fe7e05230c,,,,,59.88023952095874,001,,beliefs_scatterplots_pretest,664ed6ba62fd8adeb1015beb,,,,,2024.1.1,,,,,,,,,,,,,,,,,,,PARTICIPANT,,,,,,,,,447.47620000004764,,,,,2024-05-23_08h15.58.856,,,,664eecfb48502b2b93ede089
﻿Win32,,,,,2.3012000000476824,,,,beliefs_scatterplots_pretest,,2024-05-23_09h02.45.200,,,,,,5eac3597d327962548ce2cd3,,,,,60.97560975609891,001,,beliefs_scatterplots_pretest,664ed6ba62fd8adeb1015beb,,,,,2024.1.1,,,,,,,,,,,,,,,,,,,PARTICIPANT,,,,,0.0004999999999988347,,,,,,,,,2024-05-23_09h02.31.395,,,,664ef80fb22cc24988051383
﻿Win32,,,,,,,,,beliefs_scatterplots_pretest,,2024-05-23_09h02.45.200,23.354700000047682,,,,,5eac3597d327962548ce2cd3,,,,,60.97560975609891,001,,beliefs_scatterplots_pretest,664ed6ba62fd8adeb1015beb,,,,,2024.1.1,,,,,,,,,,,,,,,,23.353999999999996,,,PARTICIPANT,,,,,,21.996299999952317,,,,,,,,2024-05-23_09h02.31.395,26.569,,,664ef80fb22cc24988051383
﻿Win32,,,,,,,,,beliefs_scatterplots_pretest,,2024-05-23_09h02.45.200,,,,26.569200000047683,,5eac3597d327962548ce2cd3,,,,,60.97560975609891,001,,beliefs_scatterplots_pretest,664ed6ba62fd8adeb1015beb,,,,,2024.1.1,37,,,,,Male,,,,,,,31.804900000095362,,,,,,PARTICIPANT,,,,,,,,,,,,,,2024-05-23_09h02.31.395,,,,664ef80fb22cc24988051383
﻿Win32,,,54.29520000004767,,,63.62740000009536,,,beliefs_scatterplots_pretest,,2024-05-23_09h02.45.200,,,,,,5eac3597d327962548ce2cd3,,,54.297,,60.97560975609891,001,,beliefs_scatterplots_pretest,664ed6ba62fd8adeb1015beb,,,,,2024.1.1,,,,,,,,,,,,,,,,,,,PARTICIPANT,,,,,,,,50.730200000047674,,,,,,2024-05-23_09h02.31.395,,,,664ef80fb22cc24988051383
﻿Win32,,,,,,,,,beliefs_scatterplots_pretest,,2024-05-23_09h02.45.200,,,,,,5eac3597d327962548ce2cd3,,,,,60.97560975609891,001,,beliefs_scatterplots_pretest,664ed6ba62fd8adeb1015beb,,,,,2024.1.1,,,,,,,1.303699999809254,,,,,,,,,,,,PARTICIPANT,71.925,,,,,,7.447499999999991,,,,space,63.62760000014305,,2024-05-23_09h02.31.395,,4,,664ef80fb22cc24988051383
﻿Win32,,,,,,,,,beliefs_scatterplots_pretest,,2024-05-23_09h02.45.200,,,,,,5eac3597d327962548ce2cd3,71.92529999995232,,,,60.97560975609891,001,,beliefs_scatterplots_pretest,664ed6ba62fd8adeb1015beb,,,,,2024.1.1,,,,,,,,,,,80.12179999995232,,,,,,,,PARTICIPANT,,,,,,,,,,,,,,2024-05-23_09h02.31.395,,,,664ef80fb22cc24988051383
﻿Win32,,5,,,,,,,beliefs_scatterplots_pretest,,2024-05-23_09h02.45.200,,,,,,5eac3597d327962548ce2cd3,,,,,60.97560975609891,001,,beliefs_scatterplots_pretest,664ed6ba62fd8adeb1015beb,80.12190000009537,space,5.0434999999999945,0.5206000001430482,2024.1.1,,,,,,,,,,,,,,,,,,,PARTICIPANT,,,,,,,,,,,,,85.70679999995231,2024-05-23_09h02.31.395,,,,664ef80fb22cc24988051383
﻿Win32,,,,,,,,,beliefs_scatterplots_pretest,,2024-05-23_09h02.45.200,,,,,,5eac3597d327962548ce2cd3,,,,,60.97560975609891,001,,beliefs_scatterplots_pretest,664ed6ba62fd8adeb1015beb,,,,,2024.1.1,,,,,,,,,,,,,,,,,88.47529999995231,85.707,PARTICIPANT,,,,,,,,,,,,,,2024-05-23_09h02.31.395,,,,664ef80fb22cc24988051383
﻿Win32,6.5,,,88.47890000009536,,,4,"As caffeine consumption increases, so does the average heart rate.",beliefs_scatterplots_pretest,,2024-05-23_09h02.45.200,,12.281100000143041,0.8050999999046411,,2,5eac3597d327962548ce2cd3,,1,,black,60.97560975609891,001,0,beliefs_scatterplots_pretest,664ed6ba62fd8adeb1015beb,,,,,2024.1.1,,,0,0,,,,,space,101.5855,,8.036700000047674,,,1,,,,PARTICIPANT,,1,0,high_corr,,,,,,6,,,,2024-05-23_09h02.31.395,,,3,664ef80fb22cc24988051383
﻿Win32,5.5,,,101.58710000014304,,,5,Higher levels of empathy are linked to stronger interpersonal relationships.,beliefs_scatterplots_pretest,,2024-05-23_09h02.45.200,,5.860500000000002,0.7190000000000083,,7,5eac3597d327962548ce2cd3,,6,,black,60.97560975609891,001,2,beliefs_scatterplots_pretest,664ed6ba62fd8adeb1015beb,,,,,2024.1.1,,,1,0,,,,,space,108.19479999995231,,3.1995000000000005,,,1,,,,PARTICIPANT,,1,1,high_corr,,,,,,6,,,,2024-05-23_09h02.31.395,,,5,664ef80fb22cc24988051383
﻿Win32,6.5,,,108.19579999995231,,,4.5,Increased exposure to sunlight is correlated with higher vitamin D levels.,beliefs_scatterplots_pretest,,2024-05-23_09h02.45.200,,7.181000000000012,0.9953000001907242,,1,5eac3597d327962548ce2cd3,,0,,black,60.97560975609891,001,1,beliefs_scatterplots_pretest,664ed6ba62fd8adeb1015beb,,,,,2024.1.1,,,2,0,,,,,space,116.38910000014305,,4.350200000047678,,,1,,,,PARTICIPANT,,1,2,high_corr,,,,,,7,,,,2024-05-23_09h02.31.395,,,4,664ef80fb22cc24988051383
﻿Win32,6.5,,,116.39010000014305,,,4.5,"As access to clean water improves, the incidence of waterborne diseases decreases.",beliefs_scatterplots_pretest,,2024-05-23_09h02.45.200,,8.60080000019073,0.967099999904633,,6,5eac3597d327962548ce2cd3,,5,,black,60.97560975609891,001,1,beliefs_scatterplots_pretest,664ed6ba62fd8adeb1015beb,,,,,2024.1.1,,,3,0,,,,,space,125.98490000009538,,5.318300000190732,,,1,,,,PARTICIPANT,,1,3,high_corr,,,,,,6,,,,2024-05-23_09h02.31.395,,,6,664ef80fb22cc24988051383
﻿Win32,3.5,,,125.9862000000477,,,5,Higher frequency of family meals is linked to better eating habits in children.,beliefs_scatterplots_pretest,,2024-05-23_09h02.45.200,,7.247400000095354,0.2288999998569352,,20,5eac3597d327962548ce2cd3,,19,,black,60.97560975609891,001,2,beliefs_scatterplots_pretest,664ed6ba62fd8adeb1015beb,,,,,2024.1.1,,,4,0,,,,,space,133.4869000000954,,4.597000000000008,,,1,,,,PARTICIPANT,,1,4,low_corr,,,,,,6,,,,2024-05-23_09h02.31.395,,,5,664ef80fb22cc24988051383
﻿Win32,NA,,,133.48790000009538,,,NA,Please set both sliders to 7.,beliefs_scatterplots_pretest,,2024-05-23_09h02.45.200,,3.4012000000477087,0.8557999999523247,,26,5eac3597d327962548ce2cd3,,25,,red,60.97560975609891,001,NA,beliefs_scatterplots_pretest,664ed6ba62fd8adeb1015beb,,,,,2024.1.1,,,5,0,,,,,space,137.76650000000004,,2.4167999999523033,,,NA,,,,PARTICIPANT,,1,5,AC,,,,,,7,,,,2024-05-23_09h02.31.395,,,7,664ef80fb22cc24988051383
﻿Win32,6.5,,,137.76779999995233,,,3,Greater use of helmets is associated with a lower incidence of head injuries in cyclists.,beliefs_scatterplots_pretest,,2024-05-23_09h02.45.200,,10.085799999952314,0.39930000019072054,,4,5eac3597d327962548ce2cd3,,3,,black,60.97560975609891,001,2,beliefs_scatterplots_pretest,664ed6ba62fd8adeb1015beb,,,,,2024.1.1,,,6,0,,,,,space,148.27140000009538,,6.978700000047667,,,1,,,,PARTICIPANT,,1,6,high_corr,,,,,,7,,,,2024-05-23_09h02.31.395,,,4,664ef80fb22cc24988051383
﻿Win32,5.5,,,148.27229999995234,,,4,Greater frequency of exercise is linked to a lower risk of depression.,beliefs_scatterplots_pretest,,2024-05-23_09h02.45.200,,5.418399999856945,0.22270000004769486,,3,5eac3597d327962548ce2cd3,,2,,black,60.97560975609891,001,2,beliefs_scatterplots_pretest,664ed6ba62fd8adeb1015beb,,,,,2024.1.1,,,7,0,,,,,space,153.93660000014307,,3.5868000001907205,,,1,,,,PARTICIPANT,,1,7,high_corr,,,,,,7,,,,2024-05-23_09h02.31.395,,,6,664ef80fb22cc24988051383
﻿Win32,NA,,,153.93679999995234,,,NA,Please set both sliders to 7.,beliefs_scatterplots_pretest,,2024-05-23_09h02.45.200,,2.473200000047683,0.24670000004769577,,27,5eac3597d327962548ce2cd3,,26,,red,60.97560975609891,001,NA,beliefs_scatterplots_pretest,664ed6ba62fd8adeb1015beb,,,,,2024.1.1,,,8,0,,,,,space,156.67290000009538,,1.7303999998569566,,,NA,,,,PARTICIPANT,,1,8,AC,,,,,,7,,,,2024-05-23_09h02.31.395,,,7,664ef80fb22cc24988051383
﻿Win32,3,,,156.67370000004772,,,4.5,"As cultural preservation efforts increase, community identity and cohesion tend to strengthen.",beliefs_scatterplots_pretest,,2024-05-23_09h02.45.200,,86.50239999985692,1.5,,25,5eac3597d327962548ce2cd3,,24,,black,60.97560975609891,001,1,beliefs_scatterplots_pretest,664ed6ba62fd8adeb1015beb,,,,,2024.1.1,,,9,0,,,,,space,244.69890000009536,,83.74059999990462,,,0,,,,PARTICIPANT,,1,9,low_corr,,,,,,4,,,,2024-05-23_09h02.31.395,,,3,664ef80fb22cc24988051383
﻿Win32,5.5,,,244.6997000000477,,,3,"As soil quality degrades, agricultural productivity tends to decrease.",beliefs_scatterplots_pretest,,2024-05-23_09h02.45.200,,9.882700000047691,0.5660999999046226,,8,5eac3597d327962548ce2cd3,,7,,black,60.97560975609891,001,2,beliefs_scatterplots_pretest,664ed6ba62fd8adeb1015beb,,,,,2024.1.1,,,10,0,,,,,space,255.16610000014305,,8.731700000047681,,,1,,,,PARTICIPANT,,1,10,high_corr,,,,,,5,,,,2024-05-23_09h02.31.395,,,3,664ef80fb22cc24988051383
﻿Win32,3.5,,,255.16740000009537,,,4,Greater water consumption is linked to improved kidney function.,beliefs_scatterplots_pretest,,2024-05-23_09h02.45.200,,5.041299999952287,1.1968000001907058,,15,5eac3597d327962548ce2cd3,,14,,black,60.97560975609891,001,0,beliefs_scatterplots_pretest,664ed6ba62fd8adeb1015beb,,,,,2024.1.1,,,11,0,,,,,space,260.3715,,2.9960999999046294,,,1,,,,PARTICIPANT,,1,11,low_corr,,,,,,5,,,,2024-05-23_09h02.31.395,,,4,664ef80fb22cc24988051383
﻿Win32,NA,,,260.3725,,,NA,Please set both sliders to 1.,beliefs_scatterplots_pretest,,2024-05-23_09h02.45.200,,4.007000000000005,0.18950000000000955,,31,5eac3597d327962548ce2cd3,,30,,red,60.97560975609891,001,NA,beliefs_scatterplots_pretest,664ed6ba62fd8adeb1015beb,,,,,2024.1.1,,,12,0,,,,,space,264.58279999995233,,3.0762999999523117,,,NA,,,,PARTICIPANT,,1,12,AC,,,,,,1,,,,2024-05-23_09h02.31.395,,,1,664ef80fb22cc24988051383
﻿Win32,NA,,,264.5832000000477,,,NA,Please set both sliders to 1.,beliefs_scatterplots_pretest,,2024-05-23_09h02.45.200,,3.13309999990463,0.6392999999522999,,30,5eac3597d327962548ce2cd3,,29,,red,60.97560975609891,001,NA,beliefs_scatterplots_pretest,664ed6ba62fd8adeb1015beb,,,,,2024.1.1,,,13,0,,,,,space,268.38210000014305,,1.5965999999046403,,,NA,,,,PARTICIPANT,,1,13,AC,,,,,,1,,,,2024-05-23_09h02.31.395,,,1,664ef80fb22cc24988051383
﻿Win32,3,,,268.3831000001431,,,4,Greater adherence to a Mediterranean diet is linked to a lower risk of neurodegenerative diseases.,beliefs_scatterplots_pretest,,2024-05-23_09h02.45.200,,9.501700000047663,1.3071999998093133,,23,5eac3597d327962548ce2cd3,,22,,black,60.97560975609891,001,0,beliefs_scatterplots_pretest,664ed6ba62fd8adeb1015beb,,,,,2024.1.1,,,14,0,,,,,space,279.2167000000477,,8.607300000190719,,,2,,,,PARTICIPANT,,1,14,low_corr,,,,,,5,,,,2024-05-23_09h02.31.395,,,3,664ef80fb22cc24988051383
﻿Win32,3,,,279.21729999995233,,,5,Greater exposure to music education is linked to enhanced cognitive development in children.,beliefs_scatterplots_pretest,,2024-05-23_09h02.45.200,,7.134999999999991,0.2345999999046171,,18,5eac3597d327962548ce2cd3,,17,,black,60.97560975609891,001,2,beliefs_scatterplots_pretest,664ed6ba62fd8adeb1015beb,,,,,2024.1.1,,,15,0,,,,,space,286.6017000000477,,6.144200000047647,,,0,,,,PARTICIPANT,,1,15,low_corr,,,,,,5,,,,2024-05-23_09h02.31.395,,,5,664ef80fb22cc24988051383
﻿Win32,6.5,,,286.6021000001431,,,5,"As pedestrian-friendly infrastructure improves, urban walkability tends to increase.",beliefs_scatterplots_pretest,,2024-05-23_09h02.45.200,,6.289500000000032,1.7144000000953383,,13,5eac3597d327962548ce2cd3,,12,,black,60.97560975609891,001,2,beliefs_scatterplots_pretest,664ed6ba62fd8adeb1015beb,,,,,2024.1.1,,,16,0,,,,,space,293.6136000001431,,3.542100000143023,,,1,,,,PARTICIPANT,,1,16,high_corr,,,,,,4,,,,2024-05-23_09h02.31.395,,,2,664ef80fb22cc24988051383
﻿Win32,6,,,293.6144000000954,,,3,Higher attendance at preventive health screenings is linked to earlier detection of diseases.,beliefs_scatterplots_pretest,,2024-05-23_09h02.45.200,,7.593500000000006,0.3410000000000082,,11,5eac3597d327962548ce2cd3,,10,,black,60.97560975609891,001,2,beliefs_scatterplots_pretest,664ed6ba62fd8adeb1015beb,,,,,2024.1.1,,,17,0,,,,,space,301.57300000000004,,4.610300000190705,,,0,,,,PARTICIPANT,,1,17,high_corr,,,,,,7,,,,2024-05-23_09h02.31.395,,,5,664ef80fb22cc24988051383
﻿Win32,2.5,,,301.57320000004773,,,4,Higher consumption of nuts and seeds is associated with reduced risk of cardiovascular diseases.,beliefs_scatterplots_pretest,,2024-05-23_09h02.45.200,,6.629500000000007,0.19329999995233038,,24,5eac3597d327962548ce2cd3,,23,,black,60.97560975609891,001,2,beliefs_scatterplots_pretest,664ed6ba62fd8adeb1015beb,,,,,2024.1.1,,,18,0,,,,,space,308.4127000000477,,3.855600000143056,,,1,,,,PARTICIPANT,,1,18,low_corr,,,,,,5,,,,2024-05-23_09h02.31.395,,,4,664ef80fb22cc24988051383
﻿Win32,5.5,,,308.41310000014306,,,4,Higher levels of civic engagement are linked to a stronger sense of community.,beliefs_scatterplots_pretest,,2024-05-23_09h02.45.200,,4.976999999999975,2.5509999999999877,,9,5eac3597d327962548ce2cd3,,8,,black,60.97560975609891,001,0,beliefs_scatterplots_pretest,664ed6ba62fd8adeb1015beb,,,,,2024.1.1,,,19,0,,,,,space,315.9624000000954,,3.861499999999978,,,1,,,,PARTICIPANT,,1,19,high_corr,,,,,,2,,,,2024-05-23_09h02.31.395,,,3,664ef80fb22cc24988051383
﻿Win32,NA,,,315.9639000000954,,,NA,Please set both sliders to 1.,beliefs_scatterplots_pretest,,2024-05-23_09h02.45.200,,3.349099999904638,0.5099999999999909,,29,5eac3597d327962548ce2cd3,,28,,red,60.97560975609891,001,NA,beliefs_scatterplots_pretest,664ed6ba62fd8adeb1015beb,,,,,2024.1.1,,,20,0,,,,,space,319.8427999999523,,2.030099999904678,,,NA,,,,PARTICIPANT,,1,20,AC,,,,,,1,,,,2024-05-23_09h02.31.395,,,1,664ef80fb22cc24988051383
﻿Win32,7,,,319.84360000014306,,,4,"As the quality of healthcare improves, life expectancy tends to increase.",beliefs_scatterplots_pretest,,2024-05-23_09h02.45.200,,4.1897999999522995,0.33390000009541154,,5,5eac3597d327962548ce2cd3,,4,,black,60.97560975609891,001,2,beliefs_scatterplots_pretest,664ed6ba62fd8adeb1015beb,,,,,2024.1.1,,,21,0,,,,,space,324.38250000000005,,3.188599999904625,,,0,,,,PARTICIPANT,,1,21,high_corr,,,,,,7,,,,2024-05-23_09h02.31.395,,,4,664ef80fb22cc24988051383
﻿Win32,6,,,324.3829000000954,,,4.5,Greater regularity in sleep patterns is associated with improved mental health.,beliefs_scatterplots_pretest,,2024-05-23_09h02.45.200,,4.264200000047708,1.9975000000000023,,14,5eac3597d327962548ce2cd3,,13,,black,60.97560975609891,001,1,beliefs_scatterplots_pretest,664ed6ba62fd8adeb1015beb,,,,,2024.1.1,,,22,0,,,,,space,330.67029999995236,,3.0375000000000227,,,2,,,,PARTICIPANT,,1,22,high_corr,,,,,,4,,,,2024-05-23_09h02.31.395,,,3,664ef80fb22cc24988051383
﻿Win32,6.5,,,330.6717999999523,,,4.5,Increased use of energy-efficient appliances is associated with lower electricity bills.,beliefs_scatterplots_pretest,,2024-05-23_09h02.45.200,,4.857500000000016,1.0889999999999986,,12,5eac3597d327962548ce2cd3,,11,,black,60.97560975609891,001,1,beliefs_scatterplots_pretest,664ed6ba62fd8adeb1015beb,,,,,2024.1.1,,,23,0,,,,,space,336.64000000000004,,3.84729999995227,,,1,,,,PARTICIPANT,,1,23,high_corr,,,,,,7,,,,2024-05-23_09h02.31.395,,,6,664ef80fb22cc24988051383
﻿Win32,3.5,,,336.64110000014307,,,4.5,Greater intake of omega-3 fatty acids is associated with lower inflammation levels.,beliefs_scatterplots_pretest,,2024-05-23_09h02.45.200,,5.680600000143045,0.5210999999046066,,17,5eac3597d327962548ce2cd3,,16,,black,60.97560975609891,001,1,beliefs_scatterplots_pretest,664ed6ba62fd8adeb1015beb,,,,,2024.1.1,,,24,0,,,,,space,342.8612000000477,,3.3902000000476846,,,1,,,,PARTICIPANT,,1,24,low_corr,,,,,,5,,,,2024-05-23_09h02.31.395,,,3,664ef80fb22cc24988051383
﻿Win32,3,,,342.8617999999523,,,4.5,"As participation in community arts programs increases, local cultural engagement tends to rise.",beliefs_scatterplots_pretest,,2024-05-23_09h02.45.200,,3.425099999904603,0.27750000000003183,,21,5eac3597d327962548ce2cd3,,20,,black,60.97560975609891,001,1,beliefs_scatterplots_pretest,664ed6ba62fd8adeb1015beb,,,,,2024.1.1,,,25,0,,,,,space,346.593,,2.4902000000476505,,,2,,,,PARTICIPANT,,1,25,low_corr,,,,,,3,,,,2024-05-23_09h02.31.395,,,3,664ef80fb22cc24988051383
﻿Win32,1,,,346.59329999995236,,,3,Higher exposure to air conditioning is associated with increased respiratory issues.,beliefs_scatterplots_pretest,,2024-05-23_09h02.45.200,,5.941399999856969,2.648699999809253,,19,5eac3597d327962548ce2cd3,,18,,black,60.97560975609891,001,2,beliefs_scatterplots_pretest,664ed6ba62fd8adeb1015beb,,,,,2024.1.1,,,26,0,,,,,space,355.20210000014305,,5.05410000014308,,,0,,,,PARTICIPANT,,1,26,low_corr,,,,,,2,,,,2024-05-23_09h02.31.395,,,3,664ef80fb22cc24988051383
﻿Win32,2.5,,,355.20340000009537,,,4.5,Higher consumption of spicy foods is associated with a lower risk of certain types of cancer.,beliefs_scatterplots_pretest,,2024-05-23_09h02.45.200,,5.23610000014304,0.26759999990463257,,22,5eac3597d327962548ce2cd3,,21,,black,60.97560975609891,001,1,beliefs_scatterplots_pretest,664ed6ba62fd8adeb1015beb,,,,,2024.1.1,,,27,0,,,,,space,360.7207000000477,,3.493600000143033,,,1,,,,PARTICIPANT,,1,27,low_corr,,,,,,2,,,,2024-05-23_09h02.31.395,,,3,664ef80fb22cc24988051383
﻿Win32,NA,,,360.72110000014305,,,NA,Please set both sliders to 7.,beliefs_scatterplots_pretest,,2024-05-23_09h02.45.200,,2.780200000047671,0.22469999980921784,,28,5eac3597d327962548ce2cd3,,27,,red,60.97560975609891,001,NA,beliefs_scatterplots_pretest,664ed6ba62fd8adeb1015beb,,,,,2024.1.1,,,28,0,,,,,space,363.7404000000954,,1.8884000000953733,,,NA,,,,PARTICIPANT,,1,28,AC,,,,,,7,,,,2024-05-23_09h02.31.395,,,7,664ef80fb22cc24988051383
﻿Win32,3.5,,,363.74079999995234,,,3,"As the amount of sleep decreases, the risk of obesity increases.",beliefs_scatterplots_pretest,,2024-05-23_09h02.45.200,,5.703100000143024,0.6295999999046558,,16,5eac3597d327962548ce2cd3,,15,,black,60.97560975609891,001,0,beliefs_scatterplots_pretest,664ed6ba62fd8adeb1015beb,,,,,2024.1.1,,,29,0,,,,,space,370.0975,,4.788999999999987,,,1,,,,PARTICIPANT,,1,29,low_corr,,,,,,2,,,,2024-05-23_09h02.31.395,,,3,664ef80fb22cc24988051383
﻿Win32,6,,,370.098,,,3,Higher sugar consumption is associated with an increased risk of dental cavities.,beliefs_scatterplots_pretest,,2024-05-23_09h02.45.200,,5.142199999809236,0.3468999998569302,,10,5eac3597d327962548ce2cd3,,9,,black,60.97560975609891,001,0,beliefs_scatterplots_pretest,664ed6ba62fd8adeb1015beb,,,,,2024.1.1,,,30,0,,,,,space,375.6066000001431,,4.243499999999983,,,2,,,,PARTICIPANT,,1,30,high_corr,,,,,,7,,,,2024-05-23_09h02.31.395,,,3,664ef80fb22cc24988051383
﻿Win32,,,,,,,,,beliefs_scatterplots_pretest,,2024-05-23_09h02.45.200,,,,,,5eac3597d327962548ce2cd3,,,,,60.97560975609891,001,,beliefs_scatterplots_pretest,664ed6ba62fd8adeb1015beb,,,,,2024.1.1,,,,,,,,379.9574000000954,,,,,,375.6084000000954,,,,,PARTICIPANT,,,,,,,,,,,,,,2024-05-23_09h02.31.395,,,,664ef80fb22cc24988051383
﻿Win32,,,,,,,,,beliefs_scatterplots_pretest,382.0022000000477,2024-05-23_09h02.45.200,,,,,,5eac3597d327962548ce2cd3,,,,,60.97560975609891,001,,beliefs_scatterplots_pretest,664ed6ba62fd8adeb1015beb,,,,,2024.1.1,,,,,,,,,,,,,,,,,,,PARTICIPANT,,,,,,,,,379.9577000000477,,,,,2024-05-23_09h02.31.395,,,,664ef80fb22cc24988051383
﻿Win32,,,,,2.856,,,,beliefs_scatterplots_pretest,,2024-05-23_09h05.44.276,,,,,,5ed66ce4f02f1209fc2bc33a,,,,,62.5,001,,beliefs_scatterplots_pretest,664ed6ba62fd8adeb1015beb,,,,,2024.1.1,,,,,,,,,,,,,,,,,,,PARTICIPANT,,,,,0.0030000000000001137,,,,,,,,,2024-05-23_09h05.41.198,,,,664ef8c7318720d329daf672
﻿Win32,,,,,,,,,beliefs_scatterplots_pretest,,2024-05-23_09h05.44.276,47.998000000000005,,,,,5ed66ce4f02f1209fc2bc33a,,,,,62.5,001,,beliefs_scatterplots_pretest,664ed6ba62fd8adeb1015beb,,,,,2024.1.1,,,,,,,,,,,,,,,,47.997,,,PARTICIPANT,,,,,,46.682,,,,,,,,2024-05-23_09h05.41.198,52.18000000000001,,,664ef8c7318720d329daf672
﻿Win32,,,,,,,,,beliefs_scatterplots_pretest,,2024-05-23_09h05.44.276,,,,52.181,,5ed66ce4f02f1209fc2bc33a,,,,,62.5,001,,beliefs_scatterplots_pretest,664ed6ba62fd8adeb1015beb,,,,,2024.1.1,23,,,,,Female,,,,,,,58.64,,,,,,PARTICIPANT,,,,,,,,,,,,,,2024-05-23_09h05.41.198,,,,664ef8c7318720d329daf672
﻿Win32,,,76.37,,,82.296,,,beliefs_scatterplots_pretest,,2024-05-23_09h05.44.276,,,,,,5ed66ce4f02f1209fc2bc33a,,,76.372,,62.5,001,,beliefs_scatterplots_pretest,664ed6ba62fd8adeb1015beb,,,,,2024.1.1,,,,,,,,,,,,,,,,,,,PARTICIPANT,,,,,,,,71.848,,,,,,2024-05-23_09h05.41.198,,,,664ef8c7318720d329daf672
﻿Win32,,,,,,,,,beliefs_scatterplots_pretest,,2024-05-23_09h05.44.276,,,,,,5ed66ce4f02f1209fc2bc33a,,,,,62.5,001,,beliefs_scatterplots_pretest,664ed6ba62fd8adeb1015beb,,,,,2024.1.1,,,,,,,3.9399999999999977,,,,,,,,,,,,PARTICIPANT,97.424,,,,,,13.858000000000004,,,,space,82.296,,2024-05-23_09h05.41.198,,2,,664ef8c7318720d329daf672
﻿Win32,,,,,,,,,beliefs_scatterplots_pretest,,2024-05-23_09h05.44.276,,,,,,5ed66ce4f02f1209fc2bc33a,97.42500000000001,,,,62.5,001,,beliefs_scatterplots_pretest,664ed6ba62fd8adeb1015beb,,,,,2024.1.1,,,,,,,,,,,106.161,,,,,,,,PARTICIPANT,,,,,,,,,,,,,,2024-05-23_09h05.41.198,,,,664ef8c7318720d329daf672
﻿Win32,,2,,,,,,,beliefs_scatterplots_pretest,,2024-05-23_09h05.44.276,,,,,,5ed66ce4f02f1209fc2bc33a,,,,,62.5,001,,beliefs_scatterplots_pretest,664ed6ba62fd8adeb1015beb,106.162,space,4.073999999999998,0.5849999999999937,2024.1.1,,,,,,,,,,,,,,,,,,,PARTICIPANT,,,,,,,,,,,,,110.861,2024-05-23_09h05.41.198,,,,664ef8c7318720d329daf672
﻿Win32,,,,,,,,,beliefs_scatterplots_pretest,,2024-05-23_09h05.44.276,,,,,,5ed66ce4f02f1209fc2bc33a,,,,,62.5,001,,beliefs_scatterplots_pretest,664ed6ba62fd8adeb1015beb,,,,,2024.1.1,,,,,,,,,,,,,,,,,114.236,110.861,PARTICIPANT,,,,,,,,,,,,,,2024-05-23_09h05.41.198,,,,664ef8c7318720d329daf672
﻿Win32,2.5,,,114.26100000000001,,,4,Higher consumption of nuts and seeds is associated with reduced risk of cardiovascular diseases.,beliefs_scatterplots_pretest,,2024-05-23_09h05.44.276,,14.388999999999996,1.4660000000000082,,24,5ed66ce4f02f1209fc2bc33a,,23,,black,62.5,001,2,beliefs_scatterplots_pretest,664ed6ba62fd8adeb1015beb,,,,,2024.1.1,,,0,0,,,,,space,130.13699999999997,,11.623999999999981,,,1,,,,PARTICIPANT,,1,0,low_corr,,,,,,5,,,,2024-05-23_09h05.41.198,,,6,664ef8c7318720d329daf672
﻿Win32,3.5,,,130.13799999999998,,,3,"As the amount of sleep decreases, the risk of obesity increases.",beliefs_scatterplots_pretest,,2024-05-23_09h05.44.276,,11.189000000000021,0.48500000000001364,,16,5ed66ce4f02f1209fc2bc33a,,15,,black,62.5,001,0,beliefs_scatterplots_pretest,664ed6ba62fd8adeb1015beb,,,,,2024.1.1,,,1,0,,,,,space,141.84799999999998,,8.427999999999997,,,1,,,,PARTICIPANT,,1,1,low_corr,,,,,,4,,,,2024-05-23_09h05.41.198,,,5,664ef8c7318720d329daf672
﻿Win32,6.5,,,141.849,,,4.5,Increased exposure to sunlight is correlated with higher vitamin D levels.,beliefs_scatterplots_pretest,,2024-05-23_09h05.44.276,,5.830999999999989,1.164999999999992,,1,5ed66ce4f02f1209fc2bc33a,,0,,black,62.5,001,1,beliefs_scatterplots_pretest,664ed6ba62fd8adeb1015beb,,,,,2024.1.1,,,2,0,,,,,space,148.87099999999998,,3.9939999999999998,,,1,,,,PARTICIPANT,,1,2,high_corr,,,,,,5,,,,2024-05-23_09h05.41.198,,,5,664ef8c7318720d329daf672
﻿Win32,5.5,,,148.87199999999999,,,3,"As soil quality degrades, agricultural productivity tends to decrease.",beliefs_scatterplots_pretest,,2024-05-23_09h05.44.276,,15.275999999999982,2.3669999999999902,,8,5ed66ce4f02f1209fc2bc33a,,7,,black,62.5,001,2,beliefs_scatterplots_pretest,664ed6ba62fd8adeb1015beb,,,,,2024.1.1,,,3,0,,,,,space,164.84199999999998,,10.769000000000005,,,1,,,,PARTICIPANT,,1,3,high_corr,,,,,,6,,,,2024-05-23_09h05.41.198,,,6,664ef8c7318720d329daf672
﻿Win32,NA,,,164.843,,,NA,Please set both sliders to 7.,beliefs_scatterplots_pretest,,2024-05-23_09h05.44.276,,17.986999999999995,0.9569999999999936,,27,5ed66ce4f02f1209fc2bc33a,,26,,red,62.5,001,NA,beliefs_scatterplots_pretest,664ed6ba62fd8adeb1015beb,,,,,2024.1.1,,,4,0,,,,,space,183.80999999999997,,15.344999999999999,,,NA,,,,PARTICIPANT,,1,4,AC,,,,,,7,,,,2024-05-23_09h05.41.198,,,7,664ef8c7318720d329daf672
﻿Win32,6,,,183.81199999999998,,,3,Higher sugar consumption is associated with an increased risk of dental cavities.,beliefs_scatterplots_pretest,,2024-05-23_09h05.44.276,,8.602000000000004,0.6529999999999916,,10,5ed66ce4f02f1209fc2bc33a,,9,,black,62.5,001,0,beliefs_scatterplots_pretest,664ed6ba62fd8adeb1015beb,,,,,2024.1.1,,,5,0,,,,,space,193.08899999999997,,6.920000000000016,,,2,,,,PARTICIPANT,,1,5,high_corr,,,,,,5,,,,2024-05-23_09h05.41.198,,,6,664ef8c7318720d329daf672
﻿Win32,3.5,,,193.08999999999997,,,4.5,Greater intake of omega-3 fatty acids is associated with lower inflammation levels.,beliefs_scatterplots_pretest,,2024-05-23_09h05.44.276,,6.9979999999999905,0.5349999999999966,,17,5ed66ce4f02f1209fc2bc33a,,16,,black,62.5,001,1,beliefs_scatterplots_pretest,664ed6ba62fd8adeb1015beb,,,,,2024.1.1,,,6,0,,,,,space,200.646,,4.299000000000007,,,1,,,,PARTICIPANT,,1,6,low_corr,,,,,,5,,,,2024-05-23_09h05.41.198,,,5,664ef8c7318720d329daf672
﻿Win32,3,,,200.64699999999996,,,4.5,"As cultural preservation efforts increase, community identity and cohesion tend to strengthen.",beliefs_scatterplots_pretest,,2024-05-23_09h05.44.276,,10.75800000000001,0.5520000000000209,,25,5ed66ce4f02f1209fc2bc33a,,24,,black,62.5,001,1,beliefs_scatterplots_pretest,664ed6ba62fd8adeb1015beb,,,,,2024.1.1,,,7,0,,,,,space,211.98199999999997,,9.043000000000006,,,0,,,,PARTICIPANT,,1,7,low_corr,,,,,,5,,,,2024-05-23_09h05.41.198,,,6,664ef8c7318720d329daf672
﻿Win32,6.5,,,211.98299999999998,,,4.5,Increased use of energy-efficient appliances is associated with lower electricity bills.,beliefs_scatterplots_pretest,,2024-05-23_09h05.44.276,,19.467000000000013,2.5829999999999984,,12,5ed66ce4f02f1209fc2bc33a,,11,,black,62.5,001,1,beliefs_scatterplots_pretest,664ed6ba62fd8adeb1015beb,,,,,2024.1.1,,,8,0,,,,,space,232.69099999999997,,15.119,,,1,,,,PARTICIPANT,,1,8,high_corr,,,,,,6,,,,2024-05-23_09h05.41.198,,,5,664ef8c7318720d329daf672
﻿Win32,6.5,,,232.69199999999998,,,3,Greater use of helmets is associated with a lower incidence of head injuries in cyclists.,beliefs_scatterplots_pretest,,2024-05-23_09h05.44.276,,21.67900000000003,0.5509999999999877,,4,5ed66ce4f02f1209fc2bc33a,,3,,black,62.5,001,2,beliefs_scatterplots_pretest,664ed6ba62fd8adeb1015beb,,,,,2024.1.1,,,9,0,,,,,space,254.95200000000003,,17.34699999999998,,,1,,,,PARTICIPANT,,1,9,high_corr,,,,,,5,,,,2024-05-23_09h05.41.198,,,6,664ef8c7318720d329daf672
﻿Win32,5.5,,,254.95399999999998,,,4,Greater frequency of exercise is linked to a lower risk of depression.,beliefs_scatterplots_pretest,,2024-05-23_09h05.44.276,,146.933,0.7350000000000136,,3,5ed66ce4f02f1209fc2bc33a,,2,,black,62.5,001,2,beliefs_scatterplots_pretest,664ed6ba62fd8adeb1015beb,,,,,2024.1.1,,,10,0,,,,,space,402.651,,144.86599999999999,,,1,,,,PARTICIPANT,,1,10,high_corr,,,,,,5,,,,2024-05-23_09h05.41.198,,,6,664ef8c7318720d329daf672
